host_time,n_chest_acc_x,n_chest_acc_y,n_chest_acc_z,n_chest_gyro_x,n_chest_gyro_y,n_chest_gyro_z,n_left_knee_acc_x,n_left_knee_acc_y,n_left_knee_acc_z,n_left_knee_gyro_x,n_left_knee_gyro_y,n_left_knee_gyro_z,n_right_hand_acc_x,n_right_hand_acc_y,n_right_hand_acc_z,n_right_hand_gyro_x,n_right_hand_gyro_y,n_right_hand_gyro_z,q_chest_w,q_chest_x,q_chest_y,q_chest_z,q_left_hand_w,q_left_hand_x,q_left_hand_y,q_left_hand_z,q_right_knee_w,q_right_knee_x,q_right_knee_y,q_right_knee_z
1900-01-01 13:48:46.057435,-0.841064453125,0.3094482421875,0.373291015625,,,,,,,,,,-0.08154296875,0.5439453125,0.8284912109375,-58.30792999267578,30.60975646972656,-66.55487823486328,0.8693931102752686,-0.3248423337936401,-0.3457615077495575,0.138138011097908,,,,,0.8432819843292236,-0.0940662026405334,0.4304811656475067,0.3077547550201416
1900-01-01 13:48:46.064258,-0.8482666015625,0.3028564453125,0.3798828125,-13.963415145874023,-33.475608825683594,-91.49390411376952,,,,,,,-0.118896484375,0.52099609375,0.8436279296875,-57.91158676147461,28.21646499633789,-64.11585235595703,0.8693931102752686,-0.3248423337936401,-0.3457615077495575,0.138138011097908,0.8955197334289551,0.0292547941207885,0.3145173788070678,0.3134762048721313,0.8432819843292236,-0.0940662026405334,0.4304811656475067,0.3077547550201416
1900-01-01 13:48:46.083373,-0.865966796875,0.2989501953125,0.390625,-14.87804889678955,-34.00914764404297,-87.91159057617188,,,,-43.033538818359375,17.82012176513672,188.75,-0.1761474609375,0.47802734375,0.8653564453125,-60.38109970092773,26.47865867614746,-56.98170852661133,0.8746242523193359,-0.3101175725460052,-0.350749671459198,0.1258340328931808,0.8878837823867798,0.0336904302239418,0.3193419873714447,0.3294660747051239,0.8273758888244629,-0.0792250633239746,0.4439886808395386,0.3347333669662475
1900-01-01 13:48:46.094254,-0.889404296875,0.2879638671875,0.40283203125,-15.97560977935791,-34.07012176513672,-85.32012176513672,-0.57177734375,-0.7215576171875,-0.0384521484375,-46.34146499633789,10.731707572937012,199.57318115234372,-0.197021484375,0.46728515625,0.888916015625,-60.38109970092773,26.47865867614746,-56.98170852661133,0.8746242523193359,-0.3101175725460052,-0.350749671459198,0.1258340328931808,0.8878837823867798,0.0336904302239418,0.3193419873714447,0.3294660747051239,0.8181094527244568,-0.070722721517086,0.4504916369915008,0.3503604531288147
1900-01-01 13:48:46.100352,-0.8994140625,0.2640380859375,0.409912109375,-17.21036720275879,-34.14634323120117,-83.3993911743164,-0.619384765625,-0.759033203125,-0.052001953125,-70.5030517578125,-2.9115853309631348,210.5487823486328,-0.2093505859375,0.4661865234375,0.902587890625,-64.81707763671875,26.539634704589844,-45.625,0.8764804601669312,-0.304509550333023,-0.3522495925426483,0.1223765462636947,0.8878837823867798,0.0336904302239418,0.3193419873714447,0.3294660747051239,0.8081502318382263,-0.0605168864130973,0.457354724407196,0.3661388754844665
1900-01-01 13:48:46.110622,-0.9005126953125,0.2392578125,0.4112548828125,-20.2439022064209,-34.664634704589844,-81.02134704589844,-0.619384765625,-0.759033203125,-0.052001953125,-70.5030517578125,-2.9115853309631348,210.5487823486328,-0.221435546875,0.4678955078125,0.9034423828125,-65.7317123413086,26.219512939453125,-42.17987823486328,0.8783203959465027,-0.2987816035747528,-0.3536445200443268,0.1192407682538032,0.8615881204605103,0.0460881516337394,0.3303148746490478,0.3826667666435241,0.7974287867546082,-0.049713235348463,0.4640538990497589,0.3824786245822906
1900-01-01 13:48:46.118768,-0.8956298828125,0.2183837890625,0.407470703125,-22.83536720275879,-35.47256088256836,-77.92683410644531,-0.6339111328125,-0.75341796875,-0.087158203125,-74.00914764404297,-8.216464042663574,220.12196350097656,-0.221435546875,0.4678955078125,0.9034423828125,-65.7317123413086,26.219512939453125,-42.17987823486328,0.8801277279853821,-0.2930575907230377,-0.3548974096775055,0.1163622811436653,0.8410766124725342,0.0564252026379108,0.3360418379306793,0.4200978875160217,0.7866647243499756,-0.038353256881237,0.4701203405857086,0.3983395993709564
1900-01-01 13:48:46.135792,-0.8907470703125,0.2030029296875,0.400146484375,-24.115854263305664,-36.463417053222656,-74.80183410644531,-0.65576171875,-0.578125,-0.1552734375,-78.36890411376953,-37.103660583496094,233.27745056152344,-0.2293701171875,0.466552734375,0.8966064453125,-65.3506088256836,25.426830291748047,-40.10670852661133,0.8836978673934937,-0.2816874086856842,-0.3568862974643707,0.1111862808465957,0.8307170867919922,0.0625734105706214,0.33787801861763,0.4379864633083343,0.7652167081832886,-0.0128821730613708,0.4798592031002044,0.4289668798446655
1900-01-01 13:48:46.135938,-0.8916015625,0.189697265625,0.388671875,-24.49695205688477,-37.83536529541016,-71.73780822753906,-0.65576171875,-0.578125,-0.1552734375,-78.36890411376953,-37.103660583496094,233.27745056152344,-0.2293701171875,0.466552734375,0.8966064453125,-65.3506088256836,25.426830291748047,-40.10670852661133,0.8836978673934937,-0.2816874086856842,-0.3568862974643707,0.1111862808465957,0.8307170867919922,0.0625734105706214,0.33787801861763,0.4379864633083343,0.7652167081832886,-0.0128821730613708,0.4798592031002044,0.4289668798446655
1900-01-01 13:48:46.152386,-0.8931884765625,0.1746826171875,0.3773193359375,-23.82621955871582,-39.29878234863281,-68.64329528808594,-0.65576171875,-0.578125,-0.1552734375,-78.36890411376953,-37.103660583496094,233.27745056152344,-0.2275390625,0.458984375,0.8726806640625,-65.28963470458984,21.89024353027344,-37.103660583496094,0.8854966163635254,-0.2761622369289398,-0.3574791848659515,0.1088060140609741,0.8202050924301147,0.0694484487175941,0.3385801315307617,0.4558551609516144,0.7543953061103821,0.0004360991879366,0.4825285375118255,0.4450322985649109
1900-01-01 13:48:46.162434,-0.8955078125,0.1639404296875,0.366455078125,-23.170732498168945,-41.875,-65.07621765136719,-0.65576171875,-0.578125,-0.1552734375,-78.36890411376953,-37.103660583496094,233.27745056152344,-0.232177734375,0.452392578125,0.8590087890625,-66.4024429321289,19.039634704589844,-35.914634704589844,0.8854966163635254,-0.2761622369289398,-0.3574791848659515,0.1088060140609741,0.8202050924301147,0.0694484487175941,0.3385801315307617,0.4558551609516144,0.7436474561691284,0.0153208673000335,0.483776718378067,0.4612091481685638
1900-01-01 13:48:46.170297,-0.9029541015625,0.15185546875,0.355712890625,-22.530488967895508,-45.7621955871582,-61.69207382202149,-0.65576171875,-0.578125,-0.1552734375,-78.36890411376953,-37.103660583496094,233.27745056152344,-0.2403564453125,0.44091796875,0.8388671875,-68.93292999267578,9.557927131652832,-33.506099700927734,0.891326904296875,-0.2602287828922272,-0.3567934036254883,0.1025467216968536,0.7993327379226685,0.0849498435854911,0.3351006209850311,0.4914857149124145,0.7328121066093445,0.0319673232734203,0.4834314286708832,0.4777641892433166
1900-01-01 13:48:46.179347,-0.9095458984375,0.14404296875,0.3502197265625,-21.981708526611328,-50.47256088256836,-58.04878234863281,-0.697021484375,-0.5157470703125,-0.1986083984375,-59.588417053222656,-68.36890411376953,242.3475646972656,-0.2445068359375,0.4368896484375,0.8350830078125,-70.71646881103516,3.810975790023804,-32.2408561706543,0.891326904296875,-0.2602287828922272,-0.3567934036254883,0.1025467216968536,0.7886878848075867,0.0942194536328315,0.3303112387657165,0.5098907351493835,0.7219573855400085,0.049278374761343,0.4804278910160064,0.4955181181430816
1900-01-01 13:48:46.186411,-0.911865234375,0.138427734375,0.3446044921875,-20.74695205688477,-55.56402587890625,-55.1371955871582,-0.736572265625,-0.4183349609375,-0.207275390625,-59.588417053222656,-68.36890411376953,242.3475646972656,-0.2445068359375,0.4368896484375,0.8350830078125,-70.71646881103516,3.810975790023804,-32.2408561706543,0.8935665488243103,-0.2549153864383697,-0.3555645048618316,0.1006515547633171,0.7657309770584106,0.119245633482933,0.3130086064338684,0.5490556955337524,0.7106902599334717,0.0686415210366249,0.4736540615558624,0.5156155824661255
1900-01-01 13:48:46.216696,-0.908935546875,0.1357421875,0.3392333984375,-19.6189022064209,-61.18902587890625,-52.91158676147461,-0.8133544921875,-0.4281005859375,-0.2596435546875,-92.97256469726562,-138.10975646972656,241.26524353027344,-0.24951171875,0.4378662109375,0.8238525390625,-75.86890411376953,-7.118902683258057,-33.246952056884766,0.898582398891449,-0.2440101653337478,-0.3516271412372589,0.0967839285731315,0.7657309770584106,0.119245633482933,0.3130086064338684,0.5490556955337524,0.698909342288971,0.0929042100906372,0.46391162276268,0.5363585948944092
1900-01-01 13:48:46.240130,-0.9110107421875,0.129638671875,0.337890625,-16.996952056884766,-67.25609588623047,-51.18902587890625,-0.866455078125,-0.1976318359375,-0.3272705078125,-123.10975646972656,-225.64024353027344,282.5457458496094,-0.2464599609375,0.4306640625,0.827880859375,-79.07012176513672,-13.35365867614746,-35.71646499633789,0.893498957157135,-0.2875417172908783,-0.3250632286071777,0.1153831854462623,0.7257153987884521,0.1791739463806152,0.2531479895114898,0.6141253709793091,0.674899160861969,0.1570681929588318,0.4326627850532532,0.5767526626586914
1900-01-01 13:48:46.240603,-0.9215087890625,0.11962890625,0.33984375,-14.908536911010742,-74.20732116699219,-49.81707382202149,-0.866455078125,-0.1976318359375,-0.3272705078125,-169.6341552734375,-279.7408752441406,292.7896423339844,-0.2464599609375,0.4306640625,0.827880859375,-82.71341705322266,-20.15243911743164,-38.14024353027344,0.893498957157135,-0.2875417172908783,-0.3250632286071777,0.1153831854462623,0.7257153987884521,0.1791739463806152,0.2531479895114898,0.6141253709793091,0.6626949906349182,0.1942601799964904,0.4088912010192871,0.5965787768363953
1900-01-01 13:48:46.246987,-0.92138671875,0.1104736328125,0.34326171875,-11.875,-81.67683410644531,-48.810977935791016,-0.8321533203125,-0.01953125,-0.2421875,-169.6341552734375,-279.7408752441406,292.7896423339844,-0.245361328125,0.4259033203125,0.8314208984375,-86.37195587158203,-27.27134132385254,-41.524391174316406,0.8974036574363708,-0.2818817794322967,-0.3203668296337127,0.1121354177594184,0.7116042971611023,0.2045418620109558,0.2229822278022766,0.6340827345848083,0.6626949906349182,0.1942601799964904,0.4088912010192871,0.5965787768363953
1900-01-01 13:48:46.250910,-0.9183349609375,0.10498046875,0.3443603515625,-7.896341800689697,-89.54268646240234,-48.14024353027344,-0.7169189453125,0.376953125,0.1656494140625,-338.643310546875,-451.7073364257813,269.55792236328125,-0.2447509765625,0.4222412109375,0.8326416015625,-89.84756469726562,-34.48170852661133,-46.28048706054688,0.8974036574363708,-0.2818817794322967,-0.3203668296337127,0.1121354177594184,0.6974465250968933,0.2314812093973159,0.1879163533449173,0.6516688466072083,0.6385663151741028,0.2685696184635162,0.3439863622188568,0.6338586211204529
1900-01-01 13:48:46.251013,-0.915283203125,0.1043701171875,0.3480224609375,-2.9725611209869385,-97.53048706054688,-48.658538818359375,-0.7169189453125,0.376953125,0.1656494140625,-338.643310546875,-451.7073364257813,269.55792236328125,-0.2447509765625,0.4222412109375,0.8326416015625,-89.84756469726562,-34.48170852661133,-46.28048706054688,0.8974036574363708,-0.2818817794322967,-0.3203668296337127,0.1121354177594184,0.6974465250968933,0.2314812093973159,0.1879163533449173,0.6516688466072083,0.6385663151741028,0.2685696184635162,0.3439863622188568,0.6338586211204529
1900-01-01 13:48:46.258800,-0.9130859375,0.1070556640625,0.35986328125,3.292682886123657,-105.96036529541016,-49.8780517578125,-0.7169189453125,0.376953125,0.1656494140625,-338.643310546875,-451.7073364257813,269.55792236328125,-0.2283935546875,0.4093017578125,0.8409423828125,-93.99390411376952,-41.70731735229492,-53.094512939453125,0.8974036574363708,-0.2818817794322967,-0.3203668296337127,0.1121354177594184,0.6822642683982849,0.2600719034671783,0.1482356339693069,0.667011559009552,0.6265076398849487,0.3029583096504211,0.3034583926200866,0.6508589386940002
1900-01-01 13:48:46.279582,-0.9058837890625,0.1014404296875,0.3717041015625,11.432927131652832,-114.98475646972656,-52.68292617797852,-0.6978759765625,0.3809814453125,0.4268798828125,-392.2865905761719,-463.3536682128906,238.75,-0.1944580078125,0.4027099609375,0.87646484375,-104.31402587890624,-56.72256088256836,-72.16463470458984,0.9108469486236572,-0.2634958922863006,-0.3020656108856201,0.0984075888991355,0.6495518088340759,0.3161591291427612,0.0618173778057098,0.6886976361274719,0.6012778282165527,0.3662586808204651,0.2180809080600738,0.6758403778076172
1900-01-01 13:48:46.280455,-0.892578125,0.1192626953125,0.395751953125,21.128049850463867,-123.91768646240234,-56.50914764404297,-0.6978759765625,0.3809814453125,0.4268798828125,-392.2865905761719,-463.3536682128906,238.75,-0.1944580078125,0.4027099609375,0.87646484375,-109.17683410644533,-62.59146499633789,-87.94207763671875,0.9108469486236572,-0.2634958922863006,-0.3020656108856201,0.0984075888991355,0.6495518088340759,0.3161591291427612,0.0618173778057098,0.6886976361274719,0.6012778282165527,0.3662586808204651,0.2180809080600738,0.6758403778076172
1900-01-01 13:48:46.293425,-0.87451171875,0.134521484375,0.4241943359375,33.75,-132.5,-62.74390411376953,-0.6337890625,0.32861328125,0.61083984375,-427.9878234863281,-430.7164611816406,127.9573211669922,-0.1600341796875,0.4110107421875,0.90869140625,-114.375,-66.875,-107.4237823486328,0.9158855080604552,-0.2568025290966034,-0.2946432530879974,0.0916052237153053,0.6495518088340759,0.3161591291427612,0.0618173778057098,0.6886976361274719,0.589512050151825,0.3938606381416321,0.1763648986816406,0.6828212141990662
1900-01-01 13:48:46.301462,-0.8492431640625,0.1962890625,0.456298828125,45.80792617797852,-139.60366821289062,-69.58841705322266,-0.5882568359375,0.3077392578125,0.6767578125,-414.51220703125,-405.7317199707031,80.28963470458984,-0.115478515625,0.4847412109375,0.96240234375,-127.28659057617188,-62.17987823486328,-142.36280822753906,0.9158855080604552,-0.2568025290966034,-0.2946432530879974,0.0916052237153053,0.6495518088340759,0.3161591291427612,0.0618173778057098,0.6886976361274719,0.5791876316070557,0.4187420010566711,0.1359570324420929,0.6860849261283875
1900-01-01 13:48:46.319444,-0.8109130859375,0.2879638671875,0.53515625,54.26829528808594,-145.8384246826172,-84.86280822753906,-0.4920654296875,0.2373046875,0.80126953125,-396.9969482421875,-377.1799011230469,30.274391174316406,-0.0457763671875,0.5225830078125,1.0196533203125,-132.19512939453125,-55.94512176513672,-185.77745056152344,0.9353713393211364,-0.2343663871288299,-0.2612821459770202,0.0434111841022968,0.5884917974472046,0.4116392135620117,-0.1001271530985832,0.6886254549026489,0.5644394159317017,0.4600067436695099,0.0621983595192432,0.6825929284095764
1900-01-01 13:48:46.319581,-0.7996826171875,0.340087890625,0.6177978515625,75.2743911743164,-151.1737823486328,-106.66159057617188,-0.4920654296875,0.2373046875,0.80126953125,-396.9969482421875,-377.1799011230469,30.274391174316406,-0.0457763671875,0.5225830078125,1.0196533203125,-132.19512939453125,-55.94512176513672,-185.77745056152344,0.9353713393211364,-0.2343663871288299,-0.2612821459770202,0.0434111841022968,0.5884917974472046,0.4116392135620117,-0.1001271530985832,0.6886254549026489,0.5644394159317017,0.4600067436695099,0.0621983595192432,0.6825929284095764
1900-01-01 13:48:46.326574,-0.7723388671875,0.3758544921875,0.65966796875,109.1006088256836,-149.756103515625,-124.03963470458984,-0.4920654296875,0.2373046875,0.80126953125,-396.9969482421875,-377.1799011230469,30.274391174316406,0.0947265625,0.4901123046875,1.0882568359375,-126.82926940917967,-53.963417053222656,-226.38720703125,0.9353713393211364,-0.2343663871288299,-0.2612821459770202,0.0434111841022968,0.5777796506881714,0.4311137497425079,-0.1332319229841232,0.680118203163147,0.5644394159317017,0.4600067436695099,0.0621983595192432,0.6825929284095764
1900-01-01 13:48:46.346458,-0.7498779296875,0.4205322265625,0.6676025390625,136.21951293945312,-153.7957305908203,-145.15243530273438,-0.380126953125,0.013671875,0.9454345703125,-308.0945129394531,-297.2865905761719,-92.36280822753906,0.2027587890625,0.2293701171875,1.0172119140625,-103.73475646972656,-79.16159057617188,-282.256103515625,0.9439945816993712,-0.2254348695278167,-0.2408999651670456,0.0045383647084236,0.5623169541358948,0.4670112729072571,-0.189754456281662,0.6555100679397583,0.5612376928329468,0.5038225650787354,-0.0317086391150951,0.6558730602264404
1900-01-01 13:48:46.346995,-0.713623046875,0.39306640625,0.6341552734375,156.03659057617188,-159.9542694091797,-161.02134704589844,-0.380126953125,0.013671875,0.9454345703125,-308.0945129394531,-297.2865905761719,-92.36280822753906,0.2027587890625,0.2293701171875,1.0172119140625,-103.73475646972656,-79.16159057617188,-282.256103515625,0.9439945816993712,-0.2254348695278167,-0.2408999651670456,0.0045383647084236,0.5623169541358948,0.4670112729072571,-0.189754456281662,0.6555100679397583,0.5612376928329468,0.5038225650787354,-0.0317086391150951,0.6558730602264404
1900-01-01 13:48:46.362957,-0.6588134765625,0.3175048828125,0.5855712890625,172.4237823486328,-170.13719177246094,-175.28964233398438,-0.380126953125,0.013671875,0.9454345703125,-308.0945129394531,-297.2865905761719,-92.36280822753906,0.1661376953125,0.14306640625,0.946533203125,-103.52134704589844,-91.50914764404295,-299.131103515625,0.9480232000350952,-0.2205061763525009,-0.2287478893995285,-0.0174205787479877,0.5571234226226807,0.4837614893913269,-0.2138778567314148,0.6401908993721008,0.5643303990364075,0.5154529809951782,-0.0599076375365257,0.6420673727989197
1900-01-01 13:48:46.372527,-0.602783203125,0.2562255859375,0.5528564453125,187.9725646972656,-183.6737823486328,-184.4207305908203,-0.35595703125,-0.1754150390625,0.776123046875,-246.85975646972656,-256.8445129394531,-134.9237823486328,0.1365966796875,0.1239013671875,0.8990478515625,-107.59146881103516,-101.1280517578125,-328.1554870605469,0.9547419548034668,-0.2097388505935669,-0.2003636658191681,-0.0658168047666549,0.5494220852851868,0.516775906085968,-0.2564744651317596,0.604399561882019,0.5685580968856812,0.5262786149978638,-0.0864619836211204,0.6263359189033508
1900-01-01 13:48:46.380399,-0.545654296875,0.2401123046875,0.59375,206.11280822753903,-196.73780822753903,-195.8689117431641,-0.3221435546875,-0.223876953125,0.6810302734375,-205.9908599853516,-238.5823211669922,-158.4603729248047,0.14794921875,0.11083984375,0.919921875,-110.8993911743164,-103.61280822753906,-367.2408752441406,0.9547419548034668,-0.2097388505935669,-0.2003636658191681,-0.0658168047666549,0.5459924340248108,0.5330163240432739,-0.2754007875919342,0.58475661277771,0.5727820992469788,0.5373516082763672,-0.1117056608200073,0.6088477969169617
1900-01-01 13:48:46.388312,-0.498291015625,0.2774658203125,0.6866455078125,229.31402587890625,-206.631103515625,-215.12196350097656,-0.2677001953125,-0.2667236328125,0.6231689453125,-193.4146423339844,-237.7896423339844,-158.6280517578125,0.14794921875,0.11083984375,0.919921875,-110.8993911743164,-103.61280822753906,-367.2408752441406,0.9567670822143556,-0.2042639702558517,-0.1845323145389557,-0.0939186140894889,0.5459924340248108,0.5330163240432739,-0.2754007875919342,0.58475661277771,0.5758647322654724,0.5490086078643799,-0.135603666305542,0.5904074311256409
1900-01-01 13:48:46.396645,-0.43505859375,0.203857421875,0.756103515625,258.1097717285156,-210.4268341064453,-240.77745056152344,-0.2677001953125,-0.2667236328125,0.6231689453125,-193.4146423339844,-237.7896423339844,-158.6280517578125,0.2293701171875,0.08349609375,0.9931640625,-107.07317352294922,-101.49390411376952,-409.8323364257813,0.9573652148246764,-0.1993122100830078,-0.1675136983394622,-0.1251623481512069,0.5417337417602539,0.5492751598358154,-0.293798565864563,0.5643613934516907,0.5776453018188477,0.5611201524734497,-0.1584000140428543,0.5712963342666626
1900-01-01 13:48:46.406660,-0.3507080078125,0.0648193359375,0.8048095703125,297.8658752441406,-212.3018341064453,-255.70123291015625,-0.21484375,-0.2657470703125,0.580810546875,-189.43597412109372,-239.35975646972656,-155.77743530273438,0.3087158203125,-0.013916015625,1.001708984375,-90.94512176513672,-105.91463470458984,-444.131103515625,0.9563118815422058,-0.1952402889728546,-0.1486758440732956,-0.1588843464851379,0.530432403087616,0.5810681581497192,-0.3293137550354004,0.522066593170166,0.5786687731742859,0.5736839175224304,-0.181138128042221,0.5506525039672852
1900-01-01 13:48:46.435285,-0.282470703125,-0.0689697265625,0.8385009765625,343.70428466796875,-215.06097412109372,-255.48780822753903,-0.21484375,-0.2657470703125,0.580810546875,-189.43597412109372,-239.35975646972656,-155.77743530273438,0.375244140625,-0.171142578125,0.961181640625,-60.19817352294922,-124.61890411376952,-470.8536682128906,0.9489246010780334,-0.1907539367675781,-0.1024229973554611,-0.2294878214597702,0.51702481508255,0.6107545495033264,-0.3673124015331268,0.4740736484527588,0.579250156879425,0.5858537554740906,-0.2040996104478836,0.5287606716156006
1900-01-01 13:48:46.455938,-0.214599609375,-0.1656494140625,0.8585205078125,386.1585388183594,-221.26524353027344,-242.256103515625,-0.1405029296875,-0.191650390625,0.5394287109375,-189.43597412109372,-239.35975646972656,-155.77743530273438,0.4188232421875,-0.3431396484375,0.9222412109375,-60.19817352294922,-124.61890411376952,-470.8536682128906,0.942566990852356,-0.1904006004333496,-0.0739563629031181,-0.2642830610275268,0.51702481508255,0.6107545495033264,-0.3673124015331268,0.4740736484527588,0.5799117088317871,0.5968169569969177,-0.2290036529302597,0.5050437450408936
1900-01-01 13:48:46.471661,-0.1524658203125,-0.2198486328125,0.88134765625,421.6920776367188,-230.51829528808597,-221.11280822753903,-0.1405029296875,-0.191650390625,0.5394287109375,-189.43597412109372,-239.35975646972656,-155.77743530273438,0.4188232421875,-0.3431396484375,0.9222412109375,-60.19817352294922,-124.61890411376952,-470.8536682128906,0.9343788623809814,-0.1910134553909301,-0.0417537689208984,-0.297836571931839,0.5106097459793091,0.6233755946159363,-0.3885602355003357,0.4468796849250793,0.581565260887146,0.6047853231430054,-0.2560258507728576,0.4800700843334198
1900-01-01 13:48:46.488148,-0.091552734375,-0.244873046875,0.9254150390625,452.8658752441406,-239.0243988037109,-196.0823211669922,-0.039794921875,-0.1390380859375,0.5516357421875,-192.27134704589844,-241.38720703125,-163.5823211669922,0.439453125,-0.5296630859375,0.8944091796875,-23.46036720275879,-156.631103515625,-483.32318115234375,0.9242658615112304,-0.1926131546497345,-0.0061582624912261,-0.3295371532440185,0.5057352781295776,0.6332238912582397,-0.4111878871917724,0.4173532426357269,0.5906280875205994,0.6077138781547546,-0.3175826966762543,0.4254215061664581
1900-01-01 13:48:46.540644,-0.03466796875,-0.2196044921875,0.9925537109375,481.875,-241.3414764404297,-166.8292694091797,0.070068359375,-0.112060546875,0.6187744140625,-202.7896423339844,-244.14634704589844,-170.01524353027344,0.44873046875,-0.798095703125,1.061279296875,78.73475646972656,-286.06707763671875,-467.8658752441406,0.8976750373840332,-0.1996795535087585,0.072817139327526,-0.3860120773315429,0.501939058303833,0.6446131467819214,-0.4582105875015259,0.3501057028770447,0.6166080832481384,0.5856757164001465,-0.4051286280155182,0.3356324732303619
1900-01-01 13:48:46.557031,0.0185546875,-0.1668701171875,1.033447265625,499.4969482421875,-233.4298858642578,-133.9634246826172,0.179931640625,-0.09228515625,0.71923828125,-217.39329528808597,-244.14634704589844,-174.6341552734375,0.44873046875,-0.798095703125,1.061279296875,78.73475646972656,-286.06707763671875,-467.8658752441406,0.8613622784614563,-0.2153614461421966,0.160410463809967,-0.4312110245227813,0.5029758810997009,0.6474260687828064,-0.4791280925273895,0.3135139048099518,0.640068769454956,0.5767230987548828,-0.4373476207256317,0.2577391564846039
1900-01-01 13:48:46.621261,0.06494140625,-0.11865234375,1.0712890625,499.4969482421875,-218.78048706054688,-104.14634704589844,0.3453369140625,-0.076904296875,0.7843017578125,-304.4969482421875,-197.5457305908203,-197.02745056152344,0.56201171875,-0.694091796875,1.2669677734375,217.9725646972656,-378.3384094238281,-430.8079223632813,0.8193222284317017,-0.2385489493608474,0.2505944967269897,-0.4571738541126251,0.5073747634887695,0.6600199937820435,-0.5081616640090942,0.2207174152135849,0.665244996547699,0.6115225553512573,-0.4144186675548553,0.1083813235163688
1900-01-01 13:48:46.643029,0.0693359375,-0.058837890625,1.0528564453125,499.4969482421875,-195.77745056152344,-71.5243911743164,0.3916015625,-0.1280517578125,0.6495361328125,-304.4969482421875,-197.5457305908203,-197.02745056152344,0.5711669921875,-0.5081787109375,1.3779296875,280.381103515625,-396.6768493652344,-402.6219482421875,0.7814499735832214,-0.261562168598175,0.3320034146308899,-0.4590151011943817,0.503670871257782,0.6782076358795166,-0.5031595826148987,0.1821549236774444,0.6755079030990601,0.6041131615638733,-0.4123700857162475,0.0932053178548812
1900-01-01 13:48:46.712877,0.078857421875,0.0093994140625,0.9344482421875,499.4969482421875,-160.7012176513672,-33.155487060546875,0.5433349609375,-0.4150390625,0.318603515625,-346.875,-124.11585998535156,-264.8018493652344,0.2003173828125,-0.4805908203125,0.996826171875,369.8170776367188,-380.7774353027344,-220.7012176513672,0.7626859545707703,-0.2695254683494568,0.4223557114601135,-0.4090009927749634,0.4846614003181457,0.7233085036277771,-0.4743892848491668,0.1299344897270202,0.7430707216262817,0.5434757471084595,-0.3894653618335724,0.0282242577522993
1900-01-01 13:48:46.745078,0.10498046875,0.1304931640625,0.746826171875,499.4969482421875,-121.57012176513672,9.87804889678955,0.640869140625,-0.63134765625,0.2410888671875,-317.6219482421875,-97.43902587890624,-293.9634094238281,0.0919189453125,-0.511474609375,0.79052734375,286.2347717285156,-292.2408752441406,-49.8628044128418,0.7767171263694763,-0.2643760144710541,0.4259938895702362,-0.3812412917613983,0.4832584261894226,0.7302252650260925,-0.4688125848770141,0.1159618496894836,0.7654093503952026,0.5226078033447266,-0.3754295110702514,0.0090750949457287
1900-01-01 13:48:46.793150,0.1256103515625,0.2989501953125,0.561279296875,499.4969482421875,-82.88109588623047,55.47256088256836,0.7650146484375,-1.1409912109375,0.2564697265625,-174.31402587890625,-55.56402587890625,-310.6097717285156,0.2442626953125,-0.40869140625,0.623779296875,167.36280822753906,-178.94818115234375,85.13719940185547,0.8115577697753906,-0.278415709733963,0.423667311668396,-0.2904560267925262,0.491845041513443,0.7350542545318604,-0.4590412676334381,0.0840528830885887,0.7758035659790039,0.5117931962013245,-0.3690461814403534,0.0012252238811925
1900-01-01 13:48:46.820111,0.1695556640625,0.526611328125,0.3857421875,499.4969482421875,-45.42683029174805,107.04268646240234,0.7440185546875,-1.3785400390625,0.406005859375,-81.69207763671875,-44.98475646972656,-296.7987976074219,0.413818359375,-0.220458984375,0.628173828125,167.36280822753906,-178.94818115234375,85.13719940185547,0.8199670910835266,-0.2954097986221313,0.4213078618049621,-0.2507720589637756,0.5159028768539429,0.7275452017784119,-0.4494967758655548,0.0497479438781738,0.7854662537574768,0.5005276799201965,-0.363982081413269,-0.0056516812182962
1900-01-01 13:48:46.889202,0.2481689453125,0.8258056640625,0.2763671875,487.0884399414063,-17.317073822021484,157.2103729248047,0.7335205078125,-1.3983154296875,0.5157470703125,-0.9298780560493468,-40.96036529541016,-276.0975646972656,1.0052490234375,0.215576171875,0.60107421875,166.47866821289062,-4.02439022064209,214.14634704589844,0.8320623636245728,-0.3238969445228576,0.415835291147232,-0.1727539151906967,0.5303678512573242,0.7212864756584167,-0.4442350566387176,0.0333321653306484,0.8160847425460815,0.4491432607173919,-0.3626192212104797,-0.0279890280216932
1900-01-01 13:48:46.905624,0.2930908203125,1.104248046875,0.283447265625,381.5701293945313,0.3353658616542816,193.4603729248047,0.7335205078125,-1.3983154296875,0.5157470703125,58.871952056884766,-39.908538818359375,-248.90245056152344,1.0531005859375,0.2906494140625,0.5677490234375,166.47866821289062,-4.02439022064209,214.14634704589844,0.8345975279808044,-0.3281598389148712,0.4150833785533905,-0.1531793624162674,0.5447942018508911,0.7146127820014954,-0.4384099841117859,0.0180169325321912,0.8204582333564758,0.4388161897659302,-0.3653346300125122,-0.0286225080490112
1900-01-01 13:48:46.959604,0.2825927734375,1.278564453125,0.369873046875,266.69207763671875,13.064024925231934,210.6707305908203,0.733154296875,-1.1881103515625,0.7696533203125,84.63414764404297,-39.98475646972656,-220.77745056152344,1.033203125,0.3359375,0.2864990234375,210.625,36.14329528808594,189.77134704589844,0.8390246033668518,-0.3343982696533203,0.4134719967842102,-0.1151359304785728,0.5836856365203857,0.6961395740509033,-0.4174686670303345,-0.0205109287053346,0.8553099632263184,0.3805524110794067,-0.3515718281269073,-0.0047003617510199
1900-01-01 13:48:47.018202,0.265869140625,1.3079833984375,0.4556884765625,154.22256469726562,26.280488967895508,209.28353881835935,0.9051513671875,-0.7677001953125,0.9332275390625,-101.09756469726562,62.13414764404297,-167.10366821289062,1.044921875,0.300537109375,0.15625,224.23780822753903,52.94207382202149,160.19818115234375,0.8413077592849731,-0.3434076011180877,0.4119114577770233,-0.0678333640098571,0.6167380213737488,0.6780295968055725,-0.3969319462776184,-0.0485289916396141,0.8832197189331055,0.3527427613735199,-0.3088516592979431,0.0102967591956257
1900-01-01 13:48:47.028783,0.2803955078125,1.224853515625,0.533935546875,58.91768264770508,42.11890411376953,191.9512176513672,0.95654296875,-0.766357421875,0.7899169921875,-101.09756469726562,62.13414764404297,-167.10366821289062,1.063232421875,0.251708984375,0.024169921875,224.23780822753903,52.94207382202149,160.19818115234375,0.8413077592849731,-0.3434076011180877,0.4119114577770233,-0.0678333640098571,0.6167380213737488,0.6780295968055725,-0.3969319462776184,-0.0485289916396141,0.8832197189331055,0.3527427613735199,-0.3088516592979431,0.0102967591956257
1900-01-01 13:48:47.051151,0.3226318359375,1.1148681640625,0.57666015625,-9.07012176513672,67.2256088256836,177.9573211669922,0.904052734375,-0.776123046875,0.4984130859375,-173.4603729248047,113.75,-164.39024353027344,1.1007080078125,0.2008056640625,-0.0653076171875,222.94207763671875,55.56402587890625,147.1341552734375,0.8394503593444824,-0.3515095114707947,0.412560373544693,-0.0394719205796718,0.6258289217948914,0.6717988848686218,-0.3923796415328979,-0.0553412958979606,0.8832197189331055,0.3527427613735199,-0.3088516592979431,0.0102967591956257
1900-01-01 13:48:47.078774,0.3701171875,1.031005859375,0.574462890625,-51.310977935791016,96.15853881835938,170.3048858642578,0.879638671875,-0.752685546875,0.39501953125,-183.2469482421875,127.30183410644533,-159.0853729248047,1.1348876953125,0.163330078125,-0.107666015625,215.76220703125,52.66768264770508,141.6768341064453,0.8343033790588379,-0.3733250200748443,0.4056129157543182,0.0066710361279547,0.647743821144104,0.6515091061592102,-0.3880540728569031,-0.0733342170715332,0.9069782495498656,0.3327228724956512,-0.257941335439682,0.0123375337570905
1900-01-01 13:48:47.190739,0.4039306640625,0.97216796875,0.5618896484375,-65.51829528808594,122.97256469726562,168.3384246826172,0.9046630859375,-0.5635986328125,0.1676025390625,-135.47256469726562,146.66159057617188,-125.19817352294922,1.1832275390625,0.2164306640625,-0.18408203125,185.85366821289065,24.329269409179688,175.06097412109375,0.8315896987915039,-0.4212841689586639,0.3570796847343445,0.0589261390268802,0.6935493350028992,0.5961004495620728,-0.3953207731246948,-0.0858780443668365,0.9239364266395568,0.3125583827495575,-0.2203600257635116,0.0095005026087164
1900-01-01 13:48:47.212445,0.4197998046875,0.93017578125,0.5272216796875,-60.96036911010742,148.2469482421875,169.43597412109375,0.9910888671875,-0.5416259765625,0.065673828125,-126.09756469726562,147.19512939453125,-115.41159057617188,1.3284912109375,0.3106689453125,-0.2689208984375,182.27134704589844,24.52743911743164,179.69512939453125,0.8343287110328674,-0.4347182214260101,0.3296433687210083,0.0790625363588333,0.7102410197257996,0.5814946889877319,-0.388525515794754,-0.0804336443543434,0.9274681210517884,0.3068026602268219,-0.2135007381439209,0.0096129076555371
1900-01-01 13:48:47.218772,0.4210205078125,0.9075927734375,0.465576171875,-48.70426940917969,170.7469482421875,171.26524353027344,0.9910888671875,-0.5416259765625,0.065673828125,-126.09756469726562,147.19512939453125,-115.41159057617188,1.3284912109375,0.3106689453125,-0.2689208984375,179.48170471191406,24.024391174316406,165.79269409179688,0.8343287110328674,-0.4347182214260101,0.3296433687210083,0.0790625363588333,0.7671239376068115,0.5457098484039307,-0.3313899338245392,-0.0624684281647205,0.9339006543159484,0.2950473725795746,-0.201566144824028,0.0121512906625866
1900-01-01 13:48:47.240288,0.4373779296875,0.9058837890625,0.3643798828125,-33.338417053222656,191.26524353027344,172.89634704589844,1.1044921875,-0.55126953125,-0.06005859375,-126.09756469726562,147.19512939453125,-115.41159057617188,1.4473876953125,0.3272705078125,-0.3326416015625,167.98780822753906,17.240854263305664,143.0487823486328,0.8350608348846436,-0.4386397004127502,0.3212600946426391,0.0840274542570114,0.7747587561607361,0.542492151260376,-0.3191524147987366,-0.059940367937088,0.9339006543159484,0.2950473725795746,-0.201566144824028,0.0121512906625866
1900-01-01 13:48:47.251393,0.4764404296875,0.9188232421875,0.2493896484375,-18.780488967895508,206.37196350097656,169.54269409179688,1.212158203125,-0.6064453125,-0.150390625,-122.11890411376952,140.39634704589844,-106.28048706054688,1.4473876953125,0.3272705078125,-0.3326416015625,167.98780822753906,17.240854263305664,143.0487823486328,0.8350608348846436,-0.4386397004127502,0.3212600946426391,0.0840274542570114,0.781722366809845,0.5395439863204956,-0.307350218296051,-0.0577772594988346,0.9369913339614868,0.2885444760322571,-0.1963148266077041,0.0158060397952795
1900-01-01 13:48:47.288633,0.5238037109375,0.931396484375,0.1326904296875,-4.10060977935791,218.76524353027344,162.881103515625,1.212158203125,-0.6064453125,-0.150390625,-126.37195587158205,127.22561645507812,-95.88414764404295,1.554931640625,0.3507080078125,-0.31982421875,167.98780822753906,17.240854263305664,143.0487823486328,0.8352797031402588,-0.4432344436645508,0.3131670951843261,0.0881900936365127,0.7942725419998169,0.5336011648178101,-0.2851532399654388,-0.055574182420969,0.9505000114440918,0.2569034695625305,-0.1698369830846786,0.0413001962006092
1900-01-01 13:48:47.310549,0.5745849609375,0.9439697265625,0.0147705078125,5.9146342277526855,226.40245056152344,155.48780822753906,1.2752685546875,-0.6634521484375,-0.21533203125,-128.61280822753906,110.13719940185548,-84.96951293945312,1.57763671875,0.4017333984375,-0.2591552734375,146.53964233398438,-0.1371951252222061,120.07622528076172,0.8337225317955017,-0.4591075778007507,0.2901005744934082,0.0998427346348762,0.8053393959999084,0.5267248153686523,-0.2663933336734772,-0.0549913607537746,0.9538869857788086,0.2482889145612716,-0.1614842861890792,0.0487327650189399
1900-01-01 13:48:47.327132,0.611083984375,0.9576416015625,-0.0606689453125,13.20121955871582,227.69818115234372,150.36585998535156,1.3287353515625,-0.70849609375,-0.2716064453125,-128.61280822753906,110.13719940185548,-84.96951293945312,1.5421142578125,0.4422607421875,-0.1976318359375,151.03659057617188,-2.6981709003448486,113.44512176513672,0.8331120014190674,-0.4678507447242737,0.2751455307006836,0.1064658686518669,0.8155931830406189,0.5184842944145203,-0.2509264945983886,-0.0549334958195686,0.9641079902648926,0.2204701900482177,-0.1330156177282333,0.0647730603814125
1900-01-01 13:48:47.354379,0.638916015625,0.977294921875,-0.09326171875,18.170732498168945,222.82012939453125,150.24391174316406,1.3287353515625,-0.70849609375,-0.2716064453125,-129.375,88.49085235595703,-69.86280822753906,1.5421142578125,0.4422607421875,-0.1976318359375,151.03659057617188,-2.6981709003448486,113.44512176513672,0.8333720564842224,-0.4711357057094574,0.2677103281021118,0.1088722869753837,0.8636958599090576,0.4596214890480041,-0.2056237310171127,-0.0222794096916914,0.970398485660553,0.2018260955810547,-0.1126105636358261,0.0700851008296012
1900-01-01 13:48:47.381731,0.647216796875,0.9979248046875,-0.111572265625,17.19512176513672,215.71646118164065,156.18902587890625,1.34130859375,-0.7484130859375,-0.2962646484375,-129.375,88.49085235595703,-69.86280822753906,1.510009765625,0.4600830078125,-0.153564453125,156.18902587890625,-0.6554878354072571,99.16159057617188,0.8343940377235413,-0.4768270552158355,0.2530077397823334,0.1113979816436767,0.877381443977356,0.4402846693992615,-0.1903018653392791,-0.0116778248921036,0.9813984036445618,0.1617743223905563,-0.0740895941853523,0.0720902010798454
1900-01-01 13:48:47.403328,0.64892578125,1.0289306640625,-0.1392822265625,11.32621955871582,208.2012176513672,162.94207763671875,1.3515625,-0.7823486328125,-0.2779541015625,-128.0030517578125,50.79268264770508,-44.92378234863281,1.486328125,0.4583740234375,-0.11669921875,156.18902587890625,-0.6554878354072571,99.16159057617188,0.8346794247627258,-0.4803233742713928,0.2454367727041244,0.1111771538853645,0.8894655108451843,0.4230962991714477,-0.1726978123188018,-0.0039895540103316,0.983585000038147,0.1519093662500381,-0.0664632096886634,0.0711811557412147
1900-01-01 13:48:47.419997,0.64892578125,1.05322265625,-0.14892578125,4.786585330963135,197.40853881835935,166.89024353027344,1.390625,-0.8236083984375,-0.2589111328125,-128.0030517578125,50.79268264770508,-44.92378234863281,1.4906005859375,0.458984375,-0.09912109375,152.9573211669922,7.545732021331787,85.30487823486328,0.8344277739524841,-0.4846532046794891,0.237903818488121,0.1106493547558784,0.9002628922462463,0.4069305956363678,-0.1547002643346786,0.001438039005734,0.9878289103507996,0.1302861273288726,-0.0524707026779651,0.0668314546346664
1900-01-01 13:48:47.446922,0.6922607421875,1.079833984375,-0.14404296875,0.3810975551605224,186.9207305908203,168.3384246826172,1.421142578125,-0.85546875,-0.2158203125,-121.03659057617188,37.66768264770508,-27.59146499633789,1.46826171875,0.451171875,-0.069580078125,131.61585998535156,30.56402587890625,49.26829528808594,0.833623468875885,-0.4898272156715393,0.2302172631025314,0.1101873144507408,0.9107458591461182,0.3898183107376098,-0.1362949013710022,0.0026999004185199,0.9919695258140564,0.1055103987455368,-0.037807360291481,0.0586059503257274
1900-01-01 13:48:47.469493,0.770751953125,1.1590576171875,-0.1903076171875,-6.935975551605225,180.94512939453125,168.15548706054688,1.4361572265625,-0.8714599609375,-0.099609375,-104.756103515625,40.9756088256836,20.01524353027344,1.39794921875,0.449951171875,-0.0269775390625,119.5274429321289,39.84756088256836,30.45731735229492,0.833623468875885,-0.4898272156715393,0.2302172631025314,0.1101873144507408,0.9245542287826538,0.3641251623630523,-0.1122972816228866,-0.0012232507579028,0.9965124130249025,0.0543270036578178,0.0156568773090839,0.0613717511296272
1900-01-01 13:48:47.469943,0.8177490234375,1.2264404296875,-0.239013671875,-9.588415145874023,173.506103515625,160.0762176513672,1.4376220703125,-0.8956298828125,-0.0745849609375,-98.88719940185548,50.79268264770508,29.954269409179688,1.39794921875,0.449951171875,-0.0269775390625,119.5274429321289,39.84756088256836,30.45731735229492,0.8306249380111694,-0.501641035079956,0.2145799100399017,0.1112383380532264,0.9288386106491088,0.3552200496196747,-0.1051616743206977,-0.004299231339246,0.9965124130249025,0.0543270036578178,0.0156568773090839,0.0613717511296272
1900-01-01 13:48:47.471138,0.8428955078125,1.2601318359375,-0.229736328125,-1.920731782913208,161.02134704589844,148.64329528808594,1.3345947265625,-0.800537109375,0.0601806640625,-91.7073211669922,64.54268646240234,40.060977935791016,1.201416015625,0.401123046875,0.033935546875,115.74695587158205,71.9817123413086,1.1432926654815674,0.8278411626815796,-0.5114341974258423,0.1985888630151748,0.1169463843107223,0.9409420490264891,0.3281969130039215,-0.0808627605438232,-0.0193933863192796,0.9958757758140564,0.0334624350070953,0.0403297320008277,0.0740623101592063
1900-01-01 13:48:47.471924,0.8511962890625,1.2711181640625,-0.168212890625,13.582317352294922,146.49391174316406,137.3323211669922,1.3345947265625,-0.800537109375,0.0601806640625,-83.3536605834961,81.18902587890625,46.79878234863281,1.0557861328125,0.3046875,0.0205078125,119.08536529541016,93.59756469726562,6.615853786468506,0.8272674679756165,-0.5146085619926453,0.1901839524507522,0.1209820061922073,0.9494950771331788,0.3069507181644439,-0.0614770241081714,-0.0214679818600416,0.9915677905082704,-0.0066993222571909,0.0879469215869903,0.0949402227997779
1900-01-01 13:48:47.472223,0.850830078125,1.3021240234375,-0.110595703125,28.9939022064209,139.0548858642578,131.21951293945312,1.2857666015625,-0.7459716796875,0.1092529296875,-83.3536605834961,81.18902587890625,46.79878234863281,1.0557861328125,0.3046875,0.0205078125,119.08536529541016,93.59756469726562,6.615853786468506,0.8272300958633423,-0.5168052911758423,0.1813867390155792,0.1253058612346649,0.9579368829727172,0.2838426530361175,-0.0401855781674385,-0.0132395597174763,0.9896530508995056,-0.0144176362082362,0.0993248224258422,0.1025350466370582
1900-01-01 13:48:47.473383,0.8353271484375,1.3604736328125,-0.0904541015625,34.95426940917969,134.72561645507812,125.4573211669922,1.1505126953125,-0.6422119140625,0.1441650390625,-64.08536529541016,118.6280517578125,51.20426940917969,1.0513916015625,0.255126953125,-0.031005859375,115.67073059082033,101.05183410644533,11.204268455505373,0.8223878741264343,-0.532472550868988,0.1397357136011123,0.1436145156621933,0.9653899669647216,0.2601070702075958,-0.0191339068114757,-0.0005747400573454,0.9837167263031006,-0.0378745384514331,0.1352187395095825,0.112173356115818
1900-01-01 13:48:47.474805,0.8040771484375,1.396240234375,-0.076171875,35.899391174316406,131.15853881835938,113.38414764404295,0.9644775390625,-0.5638427734375,0.0819091796875,-28.91768264770508,167.59146118164062,40.16768264770508,1.0718994140625,0.346435546875,-0.077392578125,83.01829528808594,90.91463470458984,5.4268293380737305,0.8084103465080261,-0.5537636280059814,0.0971826612949371,0.1742812842130661,0.971606433391571,0.2363200783729553,0.0017793597653508,0.0114215016365051,0.9721097946166992,-0.0684561058878898,0.1777564734220504,0.1368171721696853
1900-01-01 13:48:47.476175,0.7906494140625,1.43408203125,-0.0738525390625,33.963417053222656,128.99391174316406,99.756103515625,0.8485107421875,-0.56298828125,0.029296875,-4.405488014221191,178.9329376220703,25.670732498168945,1.075927734375,0.365234375,-0.037109375,77.86585235595703,81.70732116699219,-7.027439117431641,0.7996571063995361,-0.5640913248062134,0.0634933337569236,0.195750281214714,0.9794490337371826,0.1941346675157547,0.0439492091536521,0.0325544662773609,0.9604055881500244,-0.086357980966568,0.2060230821371078,0.1664869636297226
1900-01-01 13:48:47.477229,0.771728515625,1.4664306640625,-0.0693359375,32.39329528808594,126.90548706054688,81.84451293945312,0.836669921875,-0.5701904296875,0.0233154296875,6.737804889678955,177.1341552734375,17.378049850463867,1.0626220703125,0.355224609375,0.02734375,80.12195587158203,77.08841705322266,-12.362805366516112,0.7896758317947388,-0.5752965807914734,0.0391244813799858,0.2095597684383392,0.9811986088752748,0.1666796803474426,0.0826011002063751,0.0514224506914615,0.9433242678642272,-0.1034250482916832,0.2332107126712799,0.2122620791196823
1900-01-01 13:48:47.478294,0.7342529296875,1.4580078125,-0.0579833984375,33.094512939453125,126.26524353027344,61.40243911743164,0.8287353515625,-0.5615234375,0.03662109375,13.216464042663574,165.5030517578125,6.509146690368652,0.97509765625,0.3126220703125,0.10498046875,85.7317123413086,74.1463394165039,-19.1310977935791,0.7804750800132751,-0.5838450193405151,0.0169404540210962,0.2229274213314056,0.9814661145210266,0.145886093378067,0.1033220961689949,0.0690363571047782,0.9372475743293762,-0.1070606783032417,0.2427522987127304,0.2262219339609146
1900-01-01 13:48:47.478958,0.6905517578125,1.3924560546875,-0.025634765625,35.030487060546875,124.16159057617188,37.25609970092773,0.8037109375,-0.578125,0.0579833984375,14.05487823486328,155.86891174316406,-0.2896341383457184,0.939453125,0.2938232421875,0.135498046875,81.6006088256836,73.67378234863281,-20.274391174316406,0.774528443813324,-0.587982714176178,0.0032646344043314,0.2331766188144683,0.9807698130607604,0.1331223547458648,0.1156230494379997,0.0836676955223083,0.9372475743293762,-0.1070606783032417,0.2427522987127304,0.2262219339609146
1900-01-01 13:48:47.479755,0.6666259765625,1.277587890625,0.0189208984375,37.30183029174805,125.30487823486328,15.47256088256836,0.763916015625,-0.66943359375,0.1500244140625,13.643293380737305,144.66464233398438,-1.0213414430618286,0.91552734375,0.318603515625,0.1729736328125,71.43292999267578,74.7256088256836,-18.689023971557617,0.7649868726730347,-0.5927176475524902,-0.0195963252335786,0.251190721988678,0.9791743755340576,0.1217091232538223,0.1266857087612152,0.1017602980136871,0.9372475743293762,-0.1070606783032417,0.2427522987127304,0.2262219339609146
1900-01-01 13:48:47.480500,0.628662109375,1.1748046875,0.0343017578125,38.8871955871582,130.4268341064453,0.3658536672592163,0.763916015625,-0.66943359375,0.1500244140625,9.740854263305664,133.65853881835938,-0.5792682766914368,0.9132080078125,0.3612060546875,0.1849365234375,53.6280517578125,71.6006088256836,-23.216463088989254,0.761724054813385,-0.5936007499694824,-0.0282492544502019,0.2581015825271606,0.9757683277130128,0.0986224934458732,0.1401588767766952,0.136033684015274,0.9372475743293762,-0.1070606783032417,0.2427522987127304,0.2262219339609146
1900-01-01 13:48:47.480814,0.5869140625,1.0933837890625,0.037109375,36.1128044128418,136.53964233398438,-7.530488014221191,0.6849365234375,-0.7723388671875,0.283203125,6.402439117431641,122.66768646240234,-1.2347561120986938,0.916259765625,0.4044189453125,0.208984375,53.6280517578125,71.6006088256836,-23.216463088989254,0.761724054813385,-0.5936007499694824,-0.0282492544502019,0.2581015825271606,0.9739155173301696,0.0890349671244621,0.145262986421585,0.1498668491840362,0.9372475743293762,-0.1070606783032417,0.2427522987127304,0.2262219339609146
1900-01-01 13:48:47.481195,0.5606689453125,1.0460205078125,0.0224609375,30.914634704589844,144.375,-10.594511985778809,0.55126953125,-0.8641357421875,0.41162109375,3.2012195587158203,111.73780822753906,2.42378044128418,0.928466796875,0.4327392578125,0.2144775390625,47.95731735229492,69.71036529541016,-24.63414764404297,0.7555134892463684,-0.5938448309898376,-0.0438722781836986,0.2731719017028808,0.9739155173301696,0.0890349671244621,0.145262986421585,0.1498668491840362,0.9372475743293762,-0.1070606783032417,0.2427522987127304,0.2262219339609146
1900-01-01 13:48:47.481584,0.5394287109375,1.033203125,-0.0045166015625,21.829269409179688,150.2134246826172,-11.32621955871582,0.494873046875,-0.865478515625,0.52490234375,3.2012195587158203,111.73780822753906,2.42378044128418,0.9222412109375,0.4259033203125,0.252197265625,48.246952056884766,64.67987823486328,-42.2408561706543,0.7501925230026245,-0.5923808813095093,-0.0575778037309646,0.288064032793045,0.9739155173301696,0.0890349671244621,0.145262986421585,0.1498668491840362,0.9306016564369202,-0.1098483800888061,0.2534799873828888,0.2401285767555236
1900-01-01 13:48:47.481928,0.512939453125,1.0286865234375,-0.0352783203125,13.59756088256836,153.3079376220703,-11.585366249084473,0.494873046875,-0.865478515625,0.52490234375,-35.594512939453125,98.79573059082033,48.41463470458984,0.9222412109375,0.4259033203125,0.252197265625,50.54878234863281,62.774391174316406,-52.30183029174805,0.740146279335022,-0.5866526961326599,-0.0889705866575241,0.3163957595825195,0.9739155173301696,0.0890349671244621,0.145262986421585,0.1498668491840362,0.9306016564369202,-0.1098483800888061,0.2534799873828888,0.2401285767555236
1900-01-01 13:48:47.482268,0.491455078125,1.031982421875,-0.072998046875,3.216463565826416,152.53048706054688,-12.484756469726562,0.4521484375,-0.828125,0.551513671875,-45.79268264770508,106.84451293945312,54.435977935791016,0.8822021484375,0.4027099609375,0.302734375,56.76829528808594,62.33231735229492,-58.17073440551758,0.7392376661300659,-0.5845967531204224,-0.1018852367997169,0.3184236884117126,0.9739155173301696,0.0890349671244621,0.145262986421585,0.1498668491840362,0.9306016564369202,-0.1098483800888061,0.2534799873828888,0.2401285767555236
1900-01-01 13:48:47.482453,0.452880859375,1.008544921875,-0.09716796875,-3.0640244483947754,146.47866821289062,-17.301830291748047,0.4429931640625,-0.8348388671875,0.53515625,-52.78963470458984,116.32622528076172,63.79573440551758,0.8265380859375,0.358642578125,0.3365478515625,56.76829528808594,62.33231735229492,-58.17073440551758,0.7392376661300659,-0.5845967531204224,-0.1018852367997169,0.3184236884117126,0.9739155173301696,0.0890349671244621,0.145262986421585,0.1498668491840362,0.9306016564369202,-0.1098483800888061,0.2534799873828888,0.2401285767555236
1900-01-01 13:48:47.482702,0.430419921875,0.9794921875,-0.10400390625,-5.792683124542236,137.43902587890625,-21.920732498168945,0.388671875,-0.7176513671875,0.508056640625,-61.55487823486328,124.28353881835938,72.31707763671875,0.8265380859375,0.358642578125,0.3365478515625,65.59451293945312,61.63109970092773,-61.82926940917969,0.7392376661300659,-0.5845967531204224,-0.1018852367997169,0.3184236884117126,0.9739155173301696,0.0890349671244621,0.145262986421585,0.1498668491840362,0.9306016564369202,-0.1098483800888061,0.2534799873828888,0.2401285767555236
1900-01-01 13:48:47.482845,0.4248046875,0.9468994140625,-0.064697265625,-3.887195110321045,126.46341705322266,-27.62195205688477,0.3460693359375,-0.6549072265625,0.48291015625,-70.44207763671875,134.90853881835938,76.82926940917969,0.8265380859375,0.358642578125,0.3365478515625,65.59451293945312,61.63109970092773,-61.82926940917969,0.7392376661300659,-0.5845967531204224,-0.1018852367997169,0.3184236884117126,0.9739155173301696,0.0890349671244621,0.145262986421585,0.1498668491840362,0.9306016564369202,-0.1098483800888061,0.2534799873828888,0.2401285767555236
1900-01-01 13:48:47.483056,0.43701171875,0.8846435546875,0.0137939453125,3.9481709003448486,117.75914764404295,-33.70426940917969,0.3070068359375,-0.6483154296875,0.4306640625,-71.14329528808594,143.4603729248047,68.07926940917969,0.7664794921875,0.3155517578125,0.3929443359375,65.59451293945312,61.63109970092773,-61.82926940917969,0.7392376661300659,-0.5845967531204224,-0.1018852367997169,0.3184236884117126,0.9739155173301696,0.0890349671244621,0.145262986421585,0.1498668491840362,0.9306016564369202,-0.1098483800888061,0.2534799873828888,0.2401285767555236
1900-01-01 13:48:47.483310,0.4200439453125,0.872314453125,0.0548095703125,15.381097793579102,115.03048706054688,-35.86890411376953,0.2109375,-0.6429443359375,0.2581787109375,-66.55487823486328,149.5884246826172,60.47256088256836,0.7664794921875,0.3155517578125,0.3929443359375,72.62195587158203,65.92987823486328,-50.65549087524414,0.7392376661300659,-0.5845967531204224,-0.1018852367997169,0.3184236884117126,0.9739155173301696,0.0890349671244621,0.145262986421585,0.1498668491840362,0.9306016564369202,-0.1098483800888061,0.2534799873828888,0.2401285767555236
1900-01-01 13:48:47.483496,0.3770751953125,0.90380859375,0.0750732421875,19.435976028442383,110.16768646240234,-34.5121955871582,0.166748046875,-0.8016357421875,0.2147216796875,-43.04878234863281,155.22866821289062,-1.097561001777649,0.7664794921875,0.3155517578125,0.3929443359375,72.62195587158203,65.92987823486328,-50.65549087524414,0.7392376661300659,-0.5845967531204224,-0.1018852367997169,0.3184236884117126,0.9739155173301696,0.0890349671244621,0.145262986421585,0.1498668491840362,0.9306016564369202,-0.1098483800888061,0.2534799873828888,0.2401285767555236
1900-01-01 13:48:47.483598,0.3323974609375,0.9305419921875,0.0838623046875,18.841463088989254,107.01219940185548,-35.442073822021484,0.1627197265625,-0.8065185546875,0.291259765625,-43.04878234863281,155.22866821289062,-1.097561001777649,0.7664794921875,0.3155517578125,0.3929443359375,72.62195587158203,65.92987823486328,-50.65549087524414,0.7392376661300659,-0.5845967531204224,-0.1018852367997169,0.3184236884117126,0.9739155173301696,0.0890349671244621,0.145262986421585,0.1498668491840362,0.9306016564369202,-0.1098483800888061,0.2534799873828888,0.2401285767555236
1900-01-01 13:48:47.483730,0.2861328125,0.9566650390625,0.0853271484375,13.414634704589844,102.05792999267578,-36.35670852661133,0.1627197265625,-0.8065185546875,0.291259765625,-61.00609970092773,125.16768646240234,-51.44817352294922,0.7664794921875,0.3155517578125,0.3929443359375,72.62195587158203,65.92987823486328,-50.65549087524414,0.7392376661300659,-0.5845967531204224,-0.1018852367997169,0.3184236884117126,0.9739155173301696,0.0890349671244621,0.145262986421585,0.1498668491840362,0.9306016564369202,-0.1098483800888061,0.2534799873828888,0.2401285767555236
1900-01-01 13:48:47.483890,0.241943359375,0.97705078125,0.0872802734375,9.039634704589844,97.13414764404295,-37.43902587890625,0.2725830078125,-1.14453125,0.496337890625,-65.2743911743164,134.10061645507812,-79.66463470458984,0.7664794921875,0.3155517578125,0.3929443359375,72.62195587158203,65.92987823486328,-50.65549087524414,0.7392376661300659,-0.5845967531204224,-0.1018852367997169,0.3184236884117126,0.9739155173301696,0.0890349671244621,0.145262986421585,0.1498668491840362,0.9306016564369202,-0.1098483800888061,0.2534799873828888,0.2401285767555236
1900-01-01 13:48:47.484028,0.2108154296875,0.9884033203125,0.0867919921875,2.9268293380737305,90.4573211669922,-41.08231735229492,0.325439453125,-1.299560546875,0.3289794921875,-71.09756469726562,159.61891174316406,-37.8658561706543,0.7664794921875,0.3155517578125,0.3929443359375,72.62195587158203,65.92987823486328,-50.65549087524414,0.7392376661300659,-0.5845967531204224,-0.1018852367997169,0.3184236884117126,0.9739155173301696,0.0890349671244621,0.145262986421585,0.1498668491840362,0.9306016564369202,-0.1098483800888061,0.2534799873828888,0.2401285767555236
1900-01-01 13:48:47.484161,0.180419921875,0.960693359375,0.104736328125,0.5792682766914368,83.17073059082031,-49.8628044128418,0.445068359375,-0.902587890625,0.18896484375,-71.09756469726562,159.61891174316406,-37.8658561706543,0.7664794921875,0.3155517578125,0.3929443359375,72.62195587158203,65.92987823486328,-50.65549087524414,0.7392376661300659,-0.5845967531204224,-0.1018852367997169,0.3184236884117126,0.9739155173301696,0.0890349671244621,0.145262986421585,0.1498668491840362,0.9306016564369202,-0.1098483800888061,0.2534799873828888,0.2401285767555236
1900-01-01 13:48:47.484324,0.19775390625,0.9417724609375,0.1182861328125,1.097561001777649,78.46036529541016,-54.46646499633789,0.445068359375,-0.902587890625,0.18896484375,-93.21646881103516,178.39939880371094,61.6158561706543,0.7664794921875,0.3155517578125,0.3929443359375,72.62195587158203,65.92987823486328,-50.65549087524414,0.7392376661300659,-0.5845967531204224,-0.1018852367997169,0.3184236884117126,0.9739155173301696,0.0890349671244621,0.145262986421585,0.1498668491840362,0.9306016564369202,-0.1098483800888061,0.2534799873828888,0.2401285767555236
1900-01-01 13:48:47.484522,0.2164306640625,0.8778076171875,0.173828125,5.9603657722473145,72.78963470458984,-65.96036529541016,0.4229736328125,-0.9039306640625,0.1868896484375,-93.21646881103516,178.39939880371094,61.6158561706543,0.693603515625,0.284912109375,0.4278564453125,72.62195587158203,65.92987823486328,-50.65549087524414,0.7392376661300659,-0.5845967531204224,-0.1018852367997169,0.3184236884117126,0.9739155173301696,0.0890349671244621,0.145262986421585,0.1498668491840362,0.9306016564369202,-0.1098483800888061,0.2534799873828888,0.2401285767555236
1900-01-01 13:48:47.484803,0.21484375,0.81689453125,0.2171630859375,21.067073822021484,75.1524429321289,-72.2256088256836,0.4324951171875,-0.8856201171875,0.06396484375,-40.60975646972656,143.23170471191406,43.871952056884766,0.6485595703125,0.276611328125,0.431884765625,76.23475646972656,73.20121765136719,-33.76524353027344,0.7392376661300659,-0.5845967531204224,-0.1018852367997169,0.3184236884117126,0.9739155173301696,0.0890349671244621,0.145262986421585,0.1498668491840362,0.9306016564369202,-0.1098483800888061,0.2534799873828888,0.2401285767555236
1900-01-01 13:48:47.485548,0.2030029296875,0.8033447265625,0.2530517578125,29.77134132385254,76.18902587890625,-71.29573059082031,0.280029296875,-1.11083984375,0.1715087890625,-57.3628044128418,95.33536529541016,67.6067123413086,0.654052734375,0.30126953125,0.4232177734375,77.2256088256836,81.06707763671875,-19.314023971557617,0.7392376661300659,-0.5845967531204224,-0.1018852367997169,0.3184236884117126,0.9739155173301696,0.0890349671244621,0.145262986421585,0.1498668491840362,0.9306016564369202,-0.1098483800888061,0.2534799873828888,0.2401285767555236
1900-01-01 13:48:47.485605,0.1700439453125,0.7847900390625,0.2958984375,29.77134132385254,76.18902587890625,-71.29573059082031,0.280029296875,-1.11083984375,0.1715087890625,-57.3628044128418,95.33536529541016,67.6067123413086,0.654052734375,0.30126953125,0.4232177734375,77.2256088256836,81.06707763671875,-19.314023971557617,0.7392376661300659,-0.5845967531204224,-0.1018852367997169,0.3184236884117126,0.9739155173301696,0.0890349671244621,0.145262986421585,0.1498668491840362,0.9306016564369202,-0.1098483800888061,0.2534799873828888,0.2401285767555236
1900-01-01 13:48:47.485875,0.0218505859375,0.715576171875,0.2830810546875,36.28048706054688,87.17987823486328,-61.69207382202149,0.2515869140625,-1.1610107421875,0.158203125,-56.60061264038086,89.2530517578125,76.20426940917969,0.727783203125,0.42431640625,0.3299560546875,67.01219940185547,95.70122528076172,5.1981706619262695,0.7392376661300659,-0.5845967531204224,-0.1018852367997169,0.3184236884117126,0.9739155173301696,0.0890349671244621,0.145262986421585,0.1498668491840362,0.9306016564369202,-0.1098483800888061,0.2534799873828888,0.2401285767555236
1900-01-01 13:48:47.485943,-0.040283203125,0.89697265625,0.1949462890625,36.28048706054688,87.17987823486328,-61.69207382202149,0.2515869140625,-1.1610107421875,0.158203125,-56.60061264038086,89.2530517578125,76.20426940917969,0.727783203125,0.42431640625,0.3299560546875,61.41768264770508,93.38414764404295,2.103658676147461,0.7392376661300659,-0.5845967531204224,-0.1018852367997169,0.3184236884117126,0.9739155173301696,0.0890349671244621,0.145262986421585,0.1498668491840362,0.9306016564369202,-0.1098483800888061,0.2534799873828888,0.2401285767555236
1900-01-01 13:48:47.486012,-0.048583984375,0.9222412109375,0.08935546875,36.28048706054688,87.17987823486328,-61.69207382202149,0.2515869140625,-1.1610107421875,0.158203125,-56.60061264038086,89.2530517578125,76.20426940917969,0.75634765625,0.4808349609375,0.331298828125,61.41768264770508,93.38414764404295,2.103658676147461,0.7392376661300659,-0.5845967531204224,-0.1018852367997169,0.3184236884117126,0.9739155173301696,0.0890349671244621,0.145262986421585,0.1498668491840362,0.9306016564369202,-0.1098483800888061,0.2534799873828888,0.2401285767555236
1900-01-01 13:48:47.486151,-0.0394287109375,0.9078369140625,0.060302734375,-12.317073822021484,127.6067123413086,-17.393293380737305,0.2515869140625,-1.1610107421875,0.158203125,-56.60061264038086,89.2530517578125,76.20426940917969,0.744873046875,0.5230712890625,0.348876953125,58.85670852661133,86.58536529541016,-0.7012194991111755,0.7392376661300659,-0.5845967531204224,-0.1018852367997169,0.3184236884117126,0.9739155173301696,0.0890349671244621,0.145262986421585,0.1498668491840362,0.9306016564369202,-0.1098483800888061,0.2534799873828888,0.2401285767555236
1900-01-01 13:48:47.486261,-0.0206298828125,0.8763427734375,0.0611572265625,-13.155488014221191,122.27134704589844,-21.17378044128418,0.2515869140625,-1.1610107421875,0.158203125,-56.60061264038086,89.2530517578125,76.20426940917969,0.744873046875,0.5230712890625,0.348876953125,65.07621765136719,79.23780822753906,-3.9024391174316406,0.7392376661300659,-0.5845967531204224,-0.1018852367997169,0.3184236884117126,0.9739155173301696,0.0890349671244621,0.145262986421585,0.1498668491840362,0.9306016564369202,-0.1098483800888061,0.2534799873828888,0.2401285767555236
1900-01-01 13:48:47.486320,-0.0048828125,0.831298828125,0.0804443359375,-13.155488014221191,122.27134704589844,-21.17378044128418,0.2515869140625,-1.1610107421875,0.158203125,-56.60061264038086,89.2530517578125,76.20426940917969,0.7271728515625,0.514404296875,0.3900146484375,65.07621765136719,79.23780822753906,-3.9024391174316406,0.7392376661300659,-0.5845967531204224,-0.1018852367997169,0.3184236884117126,0.9739155173301696,0.0890349671244621,0.145262986421585,0.1498668491840362,0.9306016564369202,-0.1098483800888061,0.2534799873828888,0.2401285767555236
1900-01-01 13:48:47.486457,0.0133056640625,0.85791015625,0.05224609375,2.103658676147461,120.12195587158205,-23.42987823486328,0.2515869140625,-1.1610107421875,0.158203125,-56.60061264038086,89.2530517578125,76.20426940917969,0.7213134765625,0.4818115234375,0.466796875,80.13719940185547,71.85975646972656,-12.682927131652832,0.7392376661300659,-0.5845967531204224,-0.1018852367997169,0.3184236884117126,0.9739155173301696,0.0890349671244621,0.145262986421585,0.1498668491840362,0.9306016564369202,-0.1098483800888061,0.2534799873828888,0.2401285767555236
1900-01-01 13:48:47.486533,0.0179443359375,0.887939453125,0.0194091796875,2.103658676147461,120.12195587158205,-23.42987823486328,0.2515869140625,-1.1610107421875,0.158203125,-56.60061264038086,89.2530517578125,76.20426940917969,0.7213134765625,0.4818115234375,0.466796875,93.3536605834961,73.2317123413086,-6.5396342277526855,0.7392376661300659,-0.5845967531204224,-0.1018852367997169,0.3184236884117126,0.9739155173301696,0.0890349671244621,0.145262986421585,0.1498668491840362,0.9306016564369202,-0.1098483800888061,0.2534799873828888,0.2401285767555236
1900-01-01 13:48:47.486608,0.0245361328125,0.899169921875,0.0235595703125,2.103658676147461,120.12195587158205,-23.42987823486328,0.228271484375,-1.1895751953125,0.14208984375,-56.60061264038086,89.2530517578125,76.20426940917969,0.7213134765625,0.4818115234375,0.466796875,93.3536605834961,73.2317123413086,-6.5396342277526855,0.7392376661300659,-0.5845967531204224,-0.1018852367997169,0.3184236884117126,0.9739155173301696,0.0890349671244621,0.145262986421585,0.1498668491840362,0.9306016564369202,-0.1098483800888061,0.2534799873828888,0.2401285767555236
1900-01-01 13:48:47.486664,0.0146484375,0.9586181640625,0.0662841796875,2.103658676147461,120.12195587158205,-23.42987823486328,0.228271484375,-1.1895751953125,0.14208984375,-55.80792999267578,82.68292999267578,86.875,0.7213134765625,0.4818115234375,0.466796875,93.3536605834961,73.2317123413086,-6.5396342277526855,0.7392376661300659,-0.5845967531204224,-0.1018852367997169,0.3184236884117126,0.9739155173301696,0.0890349671244621,0.145262986421585,0.1498668491840362,0.9306016564369202,-0.1098483800888061,0.2534799873828888,0.2401285767555236
1900-01-01 13:48:47.487325,-0.0025634765625,0.997802734375,0.0875244140625,-9.588415145874023,107.54573059082033,-7.698171138763428,0.125244140625,-1.154296875,0.1978759765625,-74.34451293945312,67.31707763671875,121.43292999267578,0.701904296875,0.4420166015625,0.3232421875,87.69817352294922,95.32012176513672,16.204269409179688,0.7392376661300659,-0.5845967531204224,-0.1018852367997169,0.3184236884117126,0.9739155173301696,0.0890349671244621,0.145262986421585,0.1498668491840362,0.9306016564369202,-0.1098483800888061,0.2534799873828888,0.2401285767555236
1900-01-01 13:48:47.487458,-0.0447998046875,0.983154296875,0.1749267578125,-13.460366249084473,110.18292999267578,-5.3353657722473145,0.125244140625,-1.154296875,0.1978759765625,-74.34451293945312,67.31707763671875,121.43292999267578,0.7337646484375,0.491455078125,0.2918701171875,79.28353881835938,93.125,23.125,0.7392376661300659,-0.5845967531204224,-0.1018852367997169,0.3184236884117126,0.9739155173301696,0.0890349671244621,0.145262986421585,0.1498668491840362,0.9306016564369202,-0.1098483800888061,0.2534799873828888,0.2401285767555236
1900-01-01 13:48:47.487528,-0.057861328125,0.988525390625,-0.0128173828125,-13.460366249084473,110.18292999267578,-5.3353657722473145,0.125244140625,-1.154296875,0.1978759765625,-74.34451293945312,67.31707763671875,121.43292999267578,0.7506103515625,0.5357666015625,0.25634765625,79.28353881835938,93.125,23.125,0.7392376661300659,-0.5845967531204224,-0.1018852367997169,0.3184236884117126,0.9739155173301696,0.0890349671244621,0.145262986421585,0.1498668491840362,0.9306016564369202,-0.1098483800888061,0.2534799873828888,0.2401285767555236
1900-01-01 13:48:47.487595,-0.1302490234375,0.9827880859375,-0.0618896484375,-13.460366249084473,110.18292999267578,-5.3353657722473145,0.125244140625,-1.154296875,0.1978759765625,-74.34451293945312,67.31707763671875,121.43292999267578,0.745361328125,0.538330078125,0.2679443359375,79.28353881835938,93.125,23.125,0.7392376661300659,-0.5845967531204224,-0.1018852367997169,0.3184236884117126,0.9739155173301696,0.0890349671244621,0.145262986421585,0.1498668491840362,0.9306016564369202,-0.1098483800888061,0.2534799873828888,0.2401285767555236
1900-01-01 13:48:47.487638,-0.1490478515625,0.9857177734375,-0.0794677734375,-13.460366249084473,110.18292999267578,-5.3353657722473145,0.125244140625,-1.154296875,0.1978759765625,-74.34451293945312,67.31707763671875,121.43292999267578,0.745361328125,0.538330078125,0.2679443359375,79.28353881835938,93.125,23.125,0.7392376661300659,-0.5845967531204224,-0.1018852367997169,0.3184236884117126,0.9739155173301696,0.0890349671244621,0.145262986421585,0.1498668491840362,0.9306016564369202,-0.1098483800888061,0.2534799873828888,0.2401285767555236
1900-01-01 13:48:47.487793,-0.20947265625,1.0311279296875,-0.124267578125,-52.33231735229492,106.09756469726562,-0.3658536672592163,0.125244140625,-1.154296875,0.1978759765625,-74.34451293945312,67.31707763671875,121.43292999267578,0.75927734375,0.45849609375,0.2330322265625,79.28353881835938,93.125,23.125,0.7392376661300659,-0.5845967531204224,-0.1018852367997169,0.3184236884117126,0.9739155173301696,0.0890349671244621,0.145262986421585,0.1498668491840362,0.9306016564369202,-0.1098483800888061,0.2534799873828888,0.2401285767555236
1900-01-01 13:48:47.487915,-0.294921875,1.1068115234375,-0.136474609375,-49.13109970092773,101.006103515625,-2.362804889678955,0.125244140625,-1.154296875,0.1978759765625,-74.34451293945312,67.31707763671875,121.43292999267578,0.78515625,0.5213623046875,0.270751953125,79.28353881835938,93.125,23.125,0.7392376661300659,-0.5845967531204224,-0.1018852367997169,0.3184236884117126,0.9739155173301696,0.0890349671244621,0.145262986421585,0.1498668491840362,0.9306016564369202,-0.1098483800888061,0.2534799873828888,0.2401285767555236
1900-01-01 13:48:47.487984,-0.2994384765625,1.0762939453125,-0.087158203125,-49.13109970092773,101.006103515625,-2.362804889678955,0.125244140625,-1.154296875,0.1978759765625,-74.34451293945312,67.31707763671875,121.43292999267578,0.78515625,0.5213623046875,0.270751953125,78.3993911743164,70.9756088256836,16.890243530273438,0.7392376661300659,-0.5845967531204224,-0.1018852367997169,0.3184236884117126,0.9739155173301696,0.0890349671244621,0.145262986421585,0.1498668491840362,0.9306016564369202,-0.1098483800888061,0.2534799873828888,0.2401285767555236
1900-01-01 13:48:47.491343,-0.30224609375,1.0582275390625,-0.0640869140625,-10.091464042663574,54.48170852661133,-55.80792999267578,0.125244140625,-1.154296875,0.1978759765625,-74.34451293945312,67.31707763671875,121.43292999267578,0.7288818359375,0.90234375,0.2880859375,20.198171615600582,63.14024353027344,-44.69512176513672,0.7392376661300659,-0.5845967531204224,-0.1018852367997169,0.3184236884117126,0.9641006588935852,0.0633531957864761,0.1673454046249389,0.1961932778358459,0.9233141541481018,-0.112381063401699,0.2652846276760101,0.2539398074150085
1900-01-01 13:48:47.500372,-0.3087158203125,1.064208984375,-0.0577392578125,-3.612804889678955,47.74390411376953,-64.8780517578125,0.0172119140625,-1.01416015625,0.137939453125,-90.8993911743164,85.45732116699219,174.31402587890625,0.695556640625,0.8670654296875,0.295166015625,15.70121955871582,62.469512939453125,-57.97256088256836,0.7396605610847473,-0.5827710032463074,-0.1157834082841873,0.3160289824008941,0.9641006588935852,0.0633531957864761,0.1673454046249389,0.1961932778358459,0.9233141541481018,-0.112381063401699,0.2652846276760101,0.2539398074150085
1900-01-01 13:48:47.509296,-0.3123779296875,1.0626220703125,-0.0533447265625,-0.045731708407402,40.625,-74.00914764404297,0.0172119140625,-1.01416015625,0.137939453125,-90.8993911743164,85.45732116699219,174.31402587890625,0.674072265625,0.8226318359375,0.2935791015625,7.42378044128418,62.22561264038086,-68.81097412109375,0.7405868172645569,-0.5814587473869324,-0.1229265257716178,0.3135695457458496,0.9595440626144408,0.0561093389987945,0.1764351576566696,0.2121261656284332,0.9156166315078736,-0.1148835718631744,0.2773484587669372,0.2674429714679718
1900-01-01 13:48:47.536398,-0.3125,1.050048828125,-0.0421142578125,0.4115853607654571,33.46036529541016,-83.2774429321289,-0.2376708984375,-0.6162109375,-0.153564453125,-72.1036605834961,118.33841705322266,202.27134704589844,0.6123046875,0.7586669921875,0.3380126953125,-9.69512176513672,61.219512939453125,-80.70121765136719,0.7421256899833679,-0.5795910954475403,-0.1300320327281952,0.3105082511901855,0.9544879794120787,0.0486412756145,0.1857271194458007,0.2282370775938034,0.8894557952880859,-0.122241660952568,0.3135736286640167,0.3091875314712524
1900-01-01 13:48:47.536629,-0.3109130859375,1.02001953125,-0.015869140625,-0.8231707215309143,26.08231735229492,-91.63109588623048,-0.2376708984375,-0.6162109375,-0.153564453125,-72.1036605834961,118.33841705322266,202.27134704589844,0.6123046875,0.7586669921875,0.3380126953125,-14.60365867614746,60.9908561706543,-83.73475646972656,0.7421256899833679,-0.5795910954475403,-0.1300320327281952,0.3105082511901855,0.9544879794120787,0.0486412756145,0.1857271194458007,0.2282370775938034,0.8894557952880859,-0.122241660952568,0.3135736286640167,0.3091875314712524
1900-01-01 13:48:47.536781,-0.3070068359375,0.9722900390625,0.0145263671875,-1.2804877758026123,20.96036720275879,-99.77134704589844,-0.2376708984375,-0.6162109375,-0.153564453125,-72.1036605834961,118.33841705322266,202.27134704589844,0.6123046875,0.7586669921875,0.3380126953125,-14.60365867614746,60.9908561706543,-83.73475646972656,0.7421256899833679,-0.5795910954475403,-0.1300320327281952,0.3105082511901855,0.9544879794120787,0.0486412756145,0.1857271194458007,0.2282370775938034,0.8894557952880859,-0.122241660952568,0.3135736286640167,0.3091875314712524
1900-01-01 13:48:47.553320,-0.2899169921875,0.93798828125,0.0360107421875,-1.7987805604934692,17.393293380737305,-104.23780822753906,-0.366455078125,-0.844970703125,-0.25146484375,-77.71341705322266,107.75914764404295,194.26829528808597,0.5889892578125,0.747314453125,0.357666015625,-14.60365867614746,60.9908561706543,-83.73475646972656,0.7489418983459473,-0.5717381238937378,-0.1515508890151977,0.2987203299999237,0.9372575879096984,0.0258394870907068,0.2118096649646759,0.2757122218608856,0.8704812526702881,-0.1256432086229324,0.3365831971168518,0.3364340364933014
1900-01-01 13:48:47.553473,-0.2838134765625,0.9158935546875,0.06005859375,-2.2560975551605225,16.036584854125977,-106.631103515625,-0.366455078125,-0.844970703125,-0.25146484375,-77.71341705322266,107.75914764404295,194.26829528808597,0.5889892578125,0.747314453125,0.357666015625,-14.60365867614746,60.9908561706543,-83.73475646972656,0.7489418983459473,-0.5717381238937378,-0.1515508890151977,0.2987203299999237,0.9372575879096984,0.0258394870907068,0.2118096649646759,0.2757122218608856,0.8704812526702881,-0.1256432086229324,0.3365831971168518,0.3364340364933014
1900-01-01 13:48:47.571615,-0.2828369140625,0.9066162109375,0.09375,-3.384146451950073,16.890243530273438,-106.85975646972656,-0.379638671875,-0.918701171875,-0.222412109375,-40.71646499633789,99.77134704589844,235.48780822753903,0.53759765625,0.7015380859375,0.4398193359375,-16.905488967895508,66.6463394165039,-86.67683410644531,0.7535056471824646,-0.5657524466514587,-0.1663209348917007,0.2906728386878967,0.922749936580658,0.015577184036374,0.2304792404174804,0.3084949254989624,0.8492960929870605,-0.1255990117788314,0.3610497117042541,0.3640936315059662
1900-01-01 13:48:47.579464,-0.2886962890625,0.912109375,0.1278076171875,-4.847560882568359,19.100610733032227,-104.45122528076172,-0.4249267578125,-0.7808837890625,-0.1878662109375,-45.80792617797852,102.48475646972656,243.4146423339844,0.53759765625,0.7015380859375,0.4398193359375,-15.045732498168944,70.76219940185547,-82.19512176513672,0.7535056471824646,-0.5657524466514587,-0.1663209348917007,0.2906728386878967,0.922749936580658,0.015577184036374,0.2304792404174804,0.3084949254989624,0.8371902108192444,-0.124825581908226,0.3744851052761078,0.3785393536090851
1900-01-01 13:48:47.587945,-0.2987060546875,0.9168701171875,0.1553955078125,-9.161585807800291,23.93292808532715,-103.14024353027344,-0.4384765625,-0.7733154296875,-0.1990966796875,-58.52134323120117,107.71341705322266,246.47866821289065,0.51806640625,0.7005615234375,0.4779052734375,-11.539634704589844,77.66768646240234,-78.15548706054688,0.7554317712783813,-0.5626565217971802,-0.1737698465585708,0.2873055636882782,0.9141269326210022,0.0113563211634755,0.2408861666917801,0.325909286737442,0.8371902108192444,-0.124825581908226,0.3744851052761078,0.3785393536090851
1900-01-01 13:48:47.621978,-0.313720703125,0.92041015625,0.15869140625,-15.47256088256836,31.18902587890625,-102.5,-0.4384765625,-0.7733154296875,-0.1990966796875,-66.73780822753906,114.1006088256836,256.18902587890625,0.51806640625,0.7005615234375,0.4779052734375,-11.539634704589844,77.66768646240234,-78.15548706054688,0.7608262300491333,-0.547083854675293,-0.2082012146711349,0.280169278383255,0.8823011517524719,-0.0037979574408382,0.274566650390625,0.3822868764400482,0.8082603812217712,-0.122565634548664,0.4040381014347076,0.4104218184947967
1900-01-01 13:48:47.665064,-0.323486328125,0.922607421875,0.15185546875,-23.948171615600582,38.79573440551758,-101.1280517578125,-0.47314453125,-0.728271484375,-0.23193359375,-78.15548706054688,119.46646881103516,268.5518493652344,0.47314453125,0.684814453125,0.5013427734375,-10.365854263305664,96.99695587158205,-64.51219940185547,0.7654601335525513,-0.5253786444664001,-0.2474451214075088,0.2771622538566589,0.8539654612541199,-0.0155847296118736,0.3015719950199127,0.423738569021225,0.7301157116889954,-0.1147768795490264,0.4778072237968445,0.474823534488678
1900-01-01 13:48:47.678745,-0.3419189453125,0.909423828125,0.1458740234375,-31.03658676147461,45.15243911743164,-102.01219940185548,-0.47314453125,-0.728271484375,-0.23193359375,-78.15548706054688,119.46646881103516,268.5518493652344,0.47314453125,0.684814453125,0.5013427734375,-10.365854263305664,96.99695587158205,-64.51219940185547,0.7669722437858582,-0.5193655490875244,-0.2578858733177185,0.2747869789600372,0.8539654612541199,-0.0155847296118736,0.3015719950199127,0.423738569021225,0.7301157116889954,-0.1147768795490264,0.4778072237968445,0.474823534488678
1900-01-01 13:48:47.705957,-0.35888671875,0.912353515625,0.128173828125,-37.42378234863281,50.88414764404297,-101.31098175048828,-0.475830078125,-0.7176513671875,-0.2406005859375,-72.88109588623047,139.5426788330078,307.94207763671875,0.4879150390625,0.7191162109375,0.4873046875,-11.79878044128418,112.4237823486328,-54.5121955871582,0.7698906660079956,-0.5070518255233765,-0.2796263098716736,0.2682831883430481,0.819166362285614,-0.0286248996853828,0.3333267867565155,0.4658758342266083,0.7301157116889954,-0.1147768795490264,0.4778072237968445,0.474823534488678
1900-01-01 13:48:47.727124,-0.3863525390625,0.9166259765625,0.1044921875,-45.121952056884766,52.89634323120117,-103.42987823486328,-0.466796875,-0.6927490234375,-0.27978515625,-57.103660583496094,149.84756469726562,334.93902587890625,0.4879150390625,0.7191162109375,0.4873046875,-13.338415145874023,116.18902587890624,-56.66158676147461,0.7698906660079956,-0.5070518255233765,-0.2796263098716736,0.2682831883430481,0.7990782260894775,-0.0359494946897029,0.3508798778057098,0.4868930578231811,0.7062528133392334,-0.1114851236343383,0.4992426633834839,0.4894227981567383
1900-01-01 13:48:47.759541,-0.3988037109375,0.9044189453125,0.08544921875,-48.810977935791016,51.783538818359375,-110.16768646240234,-0.44482421875,-0.428466796875,-0.36083984375,-35.1371955871582,160.35061645507812,357.4085388183594,0.5087890625,0.756591796875,0.459716796875,-17.637195587158203,117.75914764404295,-61.478660583496094,0.7737800478935242,-0.4863238036632538,-0.3141392171382904,0.2570410072803497,0.7326518297195435,-0.0597314089536666,0.4004280865192413,0.5470929145812988,0.6021636724472046,-0.0958411544561386,0.5812073349952698,0.5388984084129333
1900-01-01 13:48:47.770740,-0.3935546875,0.890380859375,0.0863037109375,-48.033538818359375,48.68902587890625,-117.6524429321289,-0.44482421875,-0.428466796875,-0.36083984375,-24.23780632019043,170.68597412109375,371.1890258789063,0.5087890625,0.756591796875,0.459716796875,-22.89634132385254,117.40853881835938,-71.28048706054688,0.7759267091751099,-0.469411551952362,-0.3389765620231628,0.2503702938556671,0.6901071071624756,-0.0753886252641677,0.4263690710067749,0.57989501953125,0.577277660369873,-0.0916000753641128,0.5978143811225891,0.5486145615577698
1900-01-01 13:48:47.807522,-0.4013671875,0.85498046875,0.110107421875,-43.15548706054688,45.86890411376953,-127.6067123413086,-0.4853515625,-0.0589599609375,-0.4949951171875,-24.664634704589844,175.19818115234375,382.5304870605469,0.5023193359375,0.7623291015625,0.477294921875,-22.89634132385254,117.40853881835938,-71.28048706054688,0.7766043543815613,-0.4601692855358124,-0.3520624041557312,0.2473498433828354,0.6685417890548706,-0.0805004984140396,0.4374636113643646,0.5959841012954712,0.4829995632171631,-0.0657239109277725,0.6421786546707153,0.5916066765785217
1900-01-01 13:48:47.839850,-0.40087890625,0.824462890625,0.125244140625,-37.80487823486328,44.496952056884766,-136.0518341064453,-0.5233154296875,0.175537109375,-0.5787353515625,-30.579269409179688,174.60366821289062,379.2073364257813,0.4781494140625,0.74853515625,0.49951171875,-26.676830291748047,117.7286605834961,-82.40853881835938,0.776950478553772,-0.4506820440292358,-0.3653092980384826,0.2445052117109298,0.6685417890548706,-0.0805004984140396,0.4374636113643646,0.5959841012954712,0.4474387466907501,-0.0484454147517681,0.6535800099372864,0.6085102558135986
1900-01-01 13:48:47.864807,-0.3974609375,0.8135986328125,0.1439208984375,-35.71646499633789,42.94207382202149,-143.01829528808594,-0.5233154296875,0.175537109375,-0.5787353515625,-41.996952056884766,170.09146118164062,357.95733642578125,0.448486328125,0.7177734375,0.509521484375,-28.155488967895508,119.131103515625,-89.74085235595703,0.7766746878623962,-0.4303683936595917,-0.393325924873352,0.2384411841630935,0.6246211528778076,-0.0840915367007255,0.4550327360630035,0.6290644407272339,0.4238547682762146,-0.0281680077314376,0.659131646156311,0.6205635666847229
1900-01-01 13:48:47.928260,-0.405517578125,0.7960205078125,0.1591796875,-34.08536529541016,42.16463470458984,-148.6280517578125,-0.583740234375,0.365478515625,-0.682373046875,-51.935977935791016,157.40853881835938,330.8841552734375,0.3583984375,0.6297607421875,0.5616455078125,-35.18292617797852,134.756103515625,-101.11280822753906,0.776066243648529,-0.4199402630329132,-0.4076555669307709,0.2349220365285873,0.5842040777206421,-0.0830845534801483,0.4644577801227569,0.6603646874427795,0.3844727575778961,0.0334196612238884,0.6611150503158569,0.6434210538864136
1900-01-01 13:48:47.966140,-0.410400390625,0.7882080078125,0.1708984375,-36.7378044128418,41.783538818359375,-154.2073211669922,-0.7315673828125,0.476318359375,-0.759765625,-63.73475646972656,141.21951293945312,307.7591552734375,0.3067626953125,0.618896484375,0.5977783203125,-36.82926940917969,142.10366821289062,-97.74390411376952,0.7737857103347778,-0.3989935517311096,-0.4366151094436645,0.226775512099266,0.5439162850379944,-0.0718300193548202,0.4679151177406311,0.6928570866584778,0.3849501311779022,0.0592133626341819,0.657781720161438,0.6446940302848816
1900-01-01 13:48:47.968646,-0.42041015625,0.79052734375,0.1873779296875,-42.68292617797852,42.21036529541016,-158.97866821289062,-0.8070068359375,0.3834228515625,-0.7779541015625,-67.21036529541016,95.86890411376952,328.6585388183594,0.2669677734375,0.63818359375,0.57177734375,-36.28048706054688,166.26524353027344,-92.27134704589844,0.7527154684066772,-0.2733892500400543,-0.5726637840270996,0.1753111183643341,0.5059559345245361,-0.0388716608285903,0.4584661424160003,0.7295933365821838,0.3935408592224121,0.1422595977783203,0.6361660361289978,0.6482133269309998
1900-01-01 13:48:47.969443,-0.423583984375,0.7633056640625,0.202880859375,-49.61890411376953,44.81707382202149,-165.82318115234375,-0.8228759765625,0.47216796875,-0.80908203125,-82.25609588623047,80.0,320.13720703125,0.252197265625,0.65380859375,0.5440673828125,-35.442073822021484,172.0884246826172,-93.79573059082033,0.7417442798614502,-0.193544402718544,-0.6272196769714355,0.1376642882823944,0.501066267490387,-0.031233200803399,0.4556810557842254,0.7350590825080872,0.4062373638153076,0.170034110546112,0.6285313963890076,0.6410990357398987
1900-01-01 13:48:47.969902,-0.4293212890625,0.728515625,0.203857421875,-55.54878234863281,48.73475646972656,-170.79269409179688,-0.9443359375,0.792724609375,-0.85693359375,-107.43902587890624,57.33231735229492,298.643310546875,0.233642578125,0.6717529296875,0.5181884765625,-35.442073822021484,172.0884246826172,-93.79573059082033,0.7345046997070312,-0.1657229363918304,-0.6472199559211731,0.1189332008361816,0.4966051280498504,-0.0159815642982721,0.4504817128181457,0.7417506575584412,0.4062373638153076,0.170034110546112,0.6285313963890076,0.6410990357398987
1900-01-01 13:48:47.970136,-0.4364013671875,0.7017822265625,0.1878662109375,-60.838417053222656,54.07012176513672,-174.66464233398438,-0.9443359375,0.792724609375,-0.85693359375,-129.14634704589844,34.22256088256836,267.3475646972656,0.233642578125,0.6717529296875,0.5181884765625,-34.98475646972656,176.2042694091797,-97.36280822753906,0.7345046997070312,-0.1657229363918304,-0.6472199559211731,0.1189332008361816,0.4971048235893249,-0.0084377210587263,0.4485296607017517,0.7427225112915039,0.4062373638153076,0.170034110546112,0.6285313963890076,0.6410990357398987
1900-01-01 13:48:47.970831,-0.4434814453125,0.6737060546875,0.160888671875,-65.65548706054688,59.14634323120117,-178.41464233398438,-1.030029296875,0.8677978515625,-0.9244384765625,-124.00914764404295,6.615853786468506,227.72866821289065,0.210693359375,0.6844482421875,0.4998779296875,-34.969512939453125,179.14634704589844,-102.69817352294922,0.7128294110298157,-0.1128281280398368,-0.6885257959365845,0.0712475478649139,0.500505268573761,0.0079467073082923,0.4445147812366485,0.7428579330444336,0.4160991609096527,0.1826641410589218,0.6253304481506348,0.6343951225280762
1900-01-01 13:48:47.972074,-0.4599609375,0.6444091796875,0.1246337890625,-68.70426940917969,64.00914764404297,-182.07318115234372,-1.147216796875,0.9024658203125,-0.8792724609375,-89.34451293945312,-34.54268264770508,152.7591552734375,0.1322021484375,0.6878662109375,0.4927978515625,-35.25914764404297,180.8841552734375,-106.20426940917967,0.6833930015563965,-0.0538314394652843,-0.727931559085846,0.0138512076810002,0.499052494764328,0.0276741366833448,0.4344558417797088,0.7492855191230774,0.4160991609096527,0.1826641410589218,0.6253304481506348,0.6343951225280762
1900-01-01 13:48:47.972769,-0.4747314453125,0.6170654296875,0.091064453125,-69.90853881835938,67.31707763671875,-186.23475646972656,-1.142822265625,0.8341064453125,-0.8223876953125,-81.4024429321289,-45.35061264038086,127.98780822753906,0.0750732421875,0.6785888671875,0.505126953125,-36.158538818359375,182.28659057617188,-109.90853881835938,0.6833930015563965,-0.0538314394652843,-0.727931559085846,0.0138512076810002,0.4999662041664123,0.06442242115736,0.4161762297153473,0.7567567825317383,0.4160991609096527,0.1826641410589218,0.6253304481506348,0.6343951225280762
1900-01-01 13:48:47.973003,-0.49462890625,0.578125,0.0662841796875,-68.46036529541016,69.93902587890625,-191.2957305908203,-1.0762939453125,0.712158203125,-0.757568359375,-81.4024429321289,-45.35061264038086,127.98780822753906,0.0750732421875,0.6785888671875,0.505126953125,-37.16463470458984,183.4603729248047,-111.55487823486328,0.6833930015563965,-0.0538314394652843,-0.727931559085846,0.0138512076810002,0.4999662041664123,0.06442242115736,0.4161762297153473,0.7567567825317383,0.4160991609096527,0.1826641410589218,0.6253304481506348,0.6343951225280762
1900-01-01 13:48:47.973277,-0.520751953125,0.5380859375,0.0504150390625,-66.17378234863281,71.38719940185547,-196.1280517578125,-1.0762939453125,0.712158203125,-0.757568359375,-81.4024429321289,-45.35061264038086,127.98780822753906,0.015380859375,0.6680908203125,0.5130615234375,-38.338417053222656,185.5792694091797,-112.2256088256836,0.6833930015563965,-0.0538314394652843,-0.727931559085846,0.0138512076810002,0.507158637046814,0.0925668254494667,0.4070570170879364,0.7540066838264465,0.4160991609096527,0.1826641410589218,0.6253304481506348,0.6343951225280762
1900-01-01 13:48:47.973992,-0.557861328125,0.4991455078125,0.041748046875,-63.978660583496094,72.1036605834961,-200.06097412109372,-0.916015625,0.6070556640625,-0.6707763671875,-61.26524353027344,-58.41463470458984,113.06402587890624,-0.1822509765625,0.6488037109375,0.535400390625,-39.42073440551758,193.0030517578125,-115.74695587158205,0.6833930015563965,-0.0538314394652843,-0.727931559085846,0.0138512076810002,0.507158637046814,0.0925668254494667,0.4070570170879364,0.7540066838264465,0.4160991609096527,0.1826641410589218,0.6253304481506348,0.6343951225280762
1900-01-01 13:48:47.974393,-0.5921630859375,0.45556640625,0.0404052734375,-62.43902587890625,72.33232116699219,-203.5823211669922,-0.88525390625,0.6251220703125,-0.6422119140625,-53.36890411376953,-64.39024353027344,103.21646881103516,-0.231201171875,0.646484375,0.51904296875,-41.29573440551758,198.29269409179688,-119.51219940185548,0.6833930015563965,-0.0538314394652843,-0.727931559085846,0.0138512076810002,0.507158637046814,0.0925668254494667,0.4070570170879364,0.7540066838264465,0.4160991609096527,0.1826641410589218,0.6253304481506348,0.6343951225280762
1900-01-01 13:48:47.974631,-0.62451171875,0.4134521484375,0.03515625,-62.80487823486328,72.6524429321289,-208.0487823486328,-0.88525390625,0.6251220703125,-0.6422119140625,-53.36890411376953,-64.39024353027344,103.21646881103516,-0.287841796875,0.66162109375,0.494873046875,-42.94207382202149,201.6768341064453,-128.0030517578125,0.6833930015563965,-0.0538314394652843,-0.727931559085846,0.0138512076810002,0.507158637046814,0.0925668254494667,0.4070570170879364,0.7540066838264465,0.4160991609096527,0.1826641410589218,0.6253304481506348,0.6343951225280762
1900-01-01 13:48:47.974794,-0.667236328125,0.38916015625,0.0284423828125,-62.98780822753906,73.67378234863281,-212.22561645507807,-0.88525390625,0.6251220703125,-0.6422119140625,-53.36890411376953,-64.39024353027344,103.21646881103516,-0.3480224609375,0.67529296875,0.5,-43.15548706054688,202.51524353027344,-137.4237823486328,0.6833930015563965,-0.0538314394652843,-0.727931559085846,0.0138512076810002,0.507158637046814,0.0925668254494667,0.4070570170879364,0.7540066838264465,0.4160991609096527,0.1826641410589218,0.6253304481506348,0.6343951225280762
1900-01-01 13:48:47.974970,-0.717041015625,0.402587890625,0.0072021484375,-65.57926940917969,76.31097412109375,-220.59451293945312,-0.88525390625,0.6251220703125,-0.6422119140625,-53.36890411376953,-64.39024353027344,103.21646881103516,-0.417236328125,0.695556640625,0.5399169921875,-35.01524353027344,202.72866821289065,-150.27439880371094,0.6833930015563965,-0.0538314394652843,-0.727931559085846,0.0138512076810002,0.507158637046814,0.0925668254494667,0.4070570170879364,0.7540066838264465,0.4160991609096527,0.1826641410589218,0.6253304481506348,0.6343951225280762
1900-01-01 13:48:47.975133,-0.7379150390625,0.3541259765625,-0.019287109375,-74.83232116699219,75.8536605834961,-238.0487823486328,-0.88525390625,0.6251220703125,-0.6422119140625,-53.36890411376953,-64.39024353027344,103.21646881103516,-0.4927978515625,0.746337890625,0.588134765625,-28.93292808532715,207.1493988037109,-166.7987823486328,0.6833930015563965,-0.0538314394652843,-0.727931559085846,0.0138512076810002,0.507158637046814,0.0925668254494667,0.4070570170879364,0.7540066838264465,0.4160991609096527,0.1826641410589218,0.6253304481506348,0.6343951225280762
1900-01-01 13:48:47.975301,-0.7471923828125,0.2294921875,-0.0565185546875,-81.23475646972656,74.98475646972656,-253.0487823486328,-0.88525390625,0.6251220703125,-0.6422119140625,-53.36890411376953,-64.39024353027344,103.21646881103516,-0.5643310546875,0.756591796875,0.600341796875,-29.7560977935791,219.1768341064453,-192.82012939453125,0.6833930015563965,-0.0538314394652843,-0.727931559085846,0.0138512076810002,0.507158637046814,0.0925668254494667,0.4070570170879364,0.7540066838264465,0.4160991609096527,0.1826641410589218,0.6253304481506348,0.6343951225280762
1900-01-01 13:48:47.975463,-0.7667236328125,0.1207275390625,-0.0872802734375,-82.82012176513672,71.58536529541016,-259.1158447265625,-0.88525390625,0.6251220703125,-0.6422119140625,-53.36890411376953,-64.39024353027344,103.21646881103516,-0.6881103515625,0.7352294921875,0.5771484375,-31.41768455505371,234.57318115234372,-231.31097412109372,0.6833930015563965,-0.0538314394652843,-0.727931559085846,0.0138512076810002,0.507158637046814,0.0925668254494667,0.4070570170879364,0.7540066838264465,0.4160991609096527,0.1826641410589218,0.6253304481506348,0.6343951225280762
1900-01-01 13:48:47.977177,-0.835205078125,0.1259765625,-0.0899658203125,-79.45121765136719,69.39024353027344,-262.881103515625,-0.8720703125,0.700439453125,-0.6854248046875,-26.463415145874023,-89.26829528808594,20.564023971557617,-0.866943359375,-0.036376953125,-0.1143798828125,29.63414764404297,309.131103515625,-414.6036682128906,0.6833930015563965,-0.0538314394652843,-0.727931559085846,0.0138512076810002,0.507158637046814,0.0925668254494667,0.4070570170879364,0.7540066838264465,0.4160991609096527,0.1826641410589218,0.6253304481506348,0.6343951225280762
1900-01-01 13:48:47.977666,-0.8985595703125,0.15380859375,-0.0714111328125,-70.83841705322266,70.38109588623047,-280.381103515625,-0.8370361328125,0.5789794921875,-0.6754150390625,-16.95121955871582,-93.81097412109376,-1.8140244483947756,-0.866943359375,-0.036376953125,-0.1143798828125,29.63414764404297,309.131103515625,-414.6036682128906,0.6833930015563965,-0.0538314394652843,-0.727931559085846,0.0138512076810002,0.507158637046814,0.0925668254494667,0.4070570170879364,0.7540066838264465,0.4160991609096527,0.1826641410589218,0.6253304481506348,0.6343951225280762
1900-01-01 13:48:47.977850,-0.90087890625,0.1165771484375,-0.0572509765625,-54.54268264770508,78.15548706054688,-315.2896423339844,-0.7449951171875,0.3701171875,-0.592529296875,-5.625,-99.31402587890624,-4.222560882568359,-0.866943359375,-0.036376953125,-0.1143798828125,29.63414764404297,309.131103515625,-414.6036682128906,0.6833930015563965,-0.0538314394652843,-0.727931559085846,0.0138512076810002,0.507158637046814,0.0925668254494667,0.4070570170879364,0.7540066838264465,0.4160991609096527,0.1826641410589218,0.6253304481506348,0.6343951225280762
1900-01-01 13:48:47.978011,-0.826904296875,-0.093505859375,-0.0230712890625,-49.344512939453125,82.66768646240234,-361.25,-0.7137451171875,0.3297119140625,-0.5399169921875,-21.676830291748047,-106.29573059082033,15.335366249084473,-0.866943359375,-0.036376953125,-0.1143798828125,29.63414764404297,309.131103515625,-414.6036682128906,0.6833930015563965,-0.0538314394652843,-0.727931559085846,0.0138512076810002,0.507158637046814,0.0925668254494667,0.4070570170879364,0.7540066838264465,0.4160991609096527,0.1826641410589218,0.6253304481506348,0.6343951225280762
1900-01-01 13:48:47.978203,-0.7073974609375,-0.3609619140625,0.0098876953125,-37.8658561706543,94.34451293945312,-402.57623291015625,-0.7333984375,0.4246826171875,-0.5943603515625,-75.13719940185547,-128.76524353027344,37.42378234863281,-0.866943359375,-0.036376953125,-0.1143798828125,29.63414764404297,309.131103515625,-414.6036682128906,0.6833930015563965,-0.0538314394652843,-0.727931559085846,0.0138512076810002,0.507158637046814,0.0925668254494667,0.4070570170879364,0.7540066838264465,0.4160991609096527,0.1826641410589218,0.6253304481506348,0.6343951225280762
1900-01-01 13:48:47.978352,-0.5770263671875,-0.6259765625,0.00439453125,-20.15243911743164,112.07317352294922,-429.51220703125,-0.759765625,0.5216064453125,-0.6356201171875,-74.86280822753906,-144.34451293945312,29.83231735229492,-0.866943359375,-0.036376953125,-0.1143798828125,29.63414764404297,309.131103515625,-414.6036682128906,0.6833930015563965,-0.0538314394652843,-0.727931559085846,0.0138512076810002,0.507158637046814,0.0925668254494667,0.4070570170879364,0.7540066838264465,0.4160991609096527,0.1826641410589218,0.6253304481506348,0.6343951225280762
1900-01-01 13:48:47.978611,-0.494384765625,-0.76708984375,-0.0550537109375,-0.9298780560493468,133.3841552734375,-444.57318115234375,-0.774658203125,0.6510009765625,-0.565185546875,-49.908538818359375,-169.7103729248047,-0.9756097793579102,-0.866943359375,-0.036376953125,-0.1143798828125,29.63414764404297,309.131103515625,-414.6036682128906,0.6833930015563965,-0.0538314394652843,-0.727931559085846,0.0138512076810002,0.507158637046814,0.0925668254494667,0.4070570170879364,0.7540066838264465,0.4160991609096527,0.1826641410589218,0.6253304481506348,0.6343951225280762
1900-01-01 13:48:47.978779,-0.419677734375,-0.8533935546875,-0.1656494140625,15.19817066192627,153.61280822753906,-468.3384399414063,-0.770263671875,0.65576171875,-0.5447998046875,-38.17073440551758,-179.2073211669922,-24.039634704589844,-0.866943359375,-0.036376953125,-0.1143798828125,29.63414764404297,309.131103515625,-414.6036682128906,0.6833930015563965,-0.0538314394652843,-0.727931559085846,0.0138512076810002,0.507158637046814,0.0925668254494667,0.4070570170879364,0.7540066838264465,0.4160991609096527,0.1826641410589218,0.6253304481506348,0.6343951225280762
1900-01-01 13:48:47.978985,-0.3238525390625,-0.978271484375,-0.269287109375,41.463417053222656,169.72561645507812,-489.268310546875,-0.772705078125,0.6497802734375,-0.5389404296875,-20.106708526611328,-188.5975646972656,-50.1371955871582,-0.866943359375,-0.036376953125,-0.1143798828125,29.63414764404297,309.131103515625,-414.6036682128906,0.6833930015563965,-0.0538314394652843,-0.727931559085846,0.0138512076810002,0.507158637046814,0.0925668254494667,0.4070570170879364,0.7540066838264465,0.4160991609096527,0.1826641410589218,0.6253304481506348,0.6343951225280762
1900-01-01 13:48:47.979125,-0.198974609375,-1.260009765625,-0.314697265625,68.49085235595703,176.9969482421875,-499.51220703125,-0.772705078125,0.6497802734375,-0.5389404296875,5.487804889678955,-200.7317047119141,-76.15853881835938,-0.866943359375,-0.036376953125,-0.1143798828125,29.63414764404297,309.131103515625,-414.6036682128906,0.6833930015563965,-0.0538314394652843,-0.727931559085846,0.0138512076810002,0.507158637046814,0.0925668254494667,0.4070570170879364,0.7540066838264465,0.4160991609096527,0.1826641410589218,0.6253304481506348,0.6343951225280762
1900-01-01 13:48:47.991328,-0.1334228515625,-1.61083984375,-0.3624267578125,91.82926940917967,179.9542694091797,-488.1554870605469,-0.7470703125,0.5843505859375,-0.5076904296875,30.060976028442383,-217.56097412109372,-92.34756469726562,-0.95361328125,-0.2291259765625,-0.275390625,37.13414764404297,285.5487976074219,-391.1737976074219,0.6670989394187927,-0.027229756116867,-0.7443015575408936,-0.0158980283886194,0.5291829109191895,0.1396279335021972,0.4032391011714935,0.7333946228027344,0.4277828633785248,0.1960282325744629,0.6223227977752686,0.6255310773849487
1900-01-01 13:48:47.998282,-0.202392578125,-1.7840576171875,-0.441162109375,93.44512176513672,170.13719177246094,-436.2347717285156,-0.714111328125,0.4854736328125,-0.4166259765625,32.21036529541016,-239.4207305908203,-98.9024429321289,-0.95361328125,-0.2291259765625,-0.275390625,37.13414764404297,285.5487976074219,-391.1737976074219,0.6513255834579468,-0.0068005314096808,-0.75746750831604,-0.0444056876003742,0.5291829109191895,0.1396279335021972,0.4032391011714935,0.7333946228027344,0.4391747713088989,0.2115315794944763,0.6192824244499207,0.6155234575271606
1900-01-01 13:48:48.008298,-0.3526611328125,-1.7745361328125,-0.48779296875,86.63109588623047,146.72256469726562,-373.2164611816406,-0.714111328125,0.4854736328125,-0.4166259765625,32.21036529541016,-239.4207305908203,-98.9024429321289,-1.1256103515625,-0.4263916015625,-0.39306640625,56.14329528808594,242.3780517578125,-353.3536682128906,0.6261622905731201,0.0248499903827905,-0.7739028930664062,-0.0915291607379913,0.5291829109191895,0.1396279335021972,0.4032391011714935,0.7333946228027344,0.4500210583209991,0.229651004076004,0.6156407594680786,0.6047544479370117
1900-01-01 13:48:48.026423,-0.484130859375,-1.746337890625,-0.5435791015625,90.64024353027344,120.92987823486328,-318.1707458496094,-0.659912109375,0.3876953125,-0.1728515625,-2.6067073345184326,-289.8628234863281,-89.4817123413086,-1.2728271484375,-0.5386962890625,-0.43896484375,54.83231735229492,131.72256469726562,-247.36280822753903,0.6179998517036438,0.0378322303295135,-0.7775722146034241,-0.1096647232770919,0.5506686568260193,0.202248603105545,0.397475928068161,0.7056007981300354,0.4698145091533661,0.2730712592601776,0.604745626449585,0.5822276473045349
1900-01-01 13:48:48.026618,-0.5531005859375,-1.6995849609375,-0.5880126953125,101.76829528808594,88.3993911743164,-258.5975646972656,-0.659912109375,0.3876953125,-0.1728515625,-2.6067073345184326,-289.8628234863281,-89.4817123413086,-1.2728271484375,-0.5386962890625,-0.43896484375,54.83231735229492,131.72256469726562,-247.36280822753903,0.6179998517036438,0.0378322303295135,-0.7775722146034241,-0.1096647232770919,0.5506686568260193,0.202248603105545,0.397475928068161,0.7056007981300354,0.4698145091533661,0.2730712592601776,0.604745626449585,0.5822276473045349
1900-01-01 13:48:48.035317,-0.61767578125,-1.5634765625,-0.5894775390625,114.16159057617188,52.48475646972656,-198.9634246826172,-0.659912109375,0.3876953125,-0.1728515625,-2.6067073345184326,-289.8628234863281,-89.4817123413086,-1.2332763671875,-0.1790771484375,-0.42041015625,29.86280632019043,25.2439022064209,-191.41769409179688,0.6134126782417297,0.0482857227325439,-0.7782279849052429,-0.1255170702934265,0.5506686568260193,0.202248603105545,0.397475928068161,0.7056007981300354,0.4803533554077148,0.2964312136173248,0.5969884395599365,0.5700824856758118
1900-01-01 13:48:48.043697,-0.6695556640625,-1.4505615234375,-0.5626220703125,118.33841705322266,16.463415145874023,-158.61280822753906,-0.5877685546875,0.4122314453125,0.0872802734375,-11.067073822021484,-323.9176940917969,-72.45426940917969,-1.1905517578125,-0.086181640625,-0.3624267578125,29.86280632019043,25.2439022064209,-191.41769409179688,0.6121495962142944,0.0569727681577205,-0.7761353254318237,-0.1401461213827133,0.5628539323806763,0.2516482770442962,0.3889799416065216,0.6845167875289917,0.4803533554077148,0.2964312136173248,0.5969884395599365,0.5700824856758118
1900-01-01 13:48:48.068562,-0.6749267578125,-1.44775390625,-0.557373046875,130.3048858642578,-13.47560977935791,-130.3353729248047,-0.5391845703125,0.6905517578125,0.363037109375,7.743902683258057,-334.93902587890625,-79.74085235595703,-1.179443359375,-0.0682373046875,-0.2935791015625,3.82621955871582,-95.1067123413086,-169.131103515625,0.6258826851844788,0.0747066885232925,-0.7549623250961304,-0.1808914095163345,0.5764620900154114,0.3027296066284179,0.3799087107181549,0.6570506691932678,0.5205444097518921,0.3605285882949829,0.5661681294441223,0.527737021446228
1900-01-01 13:48:48.070364,-0.6417236328125,-1.388427734375,-0.53857421875,147.56097412109375,-41.18902587890625,-99.66463470458984,-0.5391845703125,0.6905517578125,0.363037109375,7.743902683258057,-334.93902587890625,-79.74085235595703,-1.179443359375,-0.0682373046875,-0.2935791015625,3.82621955871582,-95.1067123413086,-169.131103515625,0.6258826851844788,0.0747066885232925,-0.7549623250961304,-0.1808914095163345,0.5764620900154114,0.3027296066284179,0.3799087107181549,0.6570506691932678,0.5205444097518921,0.3605285882949829,0.5661681294441223,0.527737021446228
1900-01-01 13:48:48.091863,-0.6123046875,-1.3167724609375,-0.520751953125,164.131103515625,-64.89329528808594,-74.39024353027344,-0.5391845703125,0.6905517578125,0.363037109375,6.204268455505371,-335.625,-104.57317352294922,-1.179443359375,-0.0682373046875,-0.2935791015625,3.82621955871582,-95.1067123413086,-169.131103515625,0.6258826851844788,0.0747066885232925,-0.7549623250961304,-0.1808914095163345,0.5845649838447571,0.3276513218879699,0.3751973211765289,0.6404335498809814,0.5373010039329529,0.3792749941349029,0.5537564158439636,0.5106973648071289
1900-01-01 13:48:48.129959,-0.5640869140625,-1.2568359375,-0.4930419921875,177.36280822753906,-88.91768646240234,-49.83231735229492,-0.4033203125,0.7994384765625,0.4771728515625,-25.594512939453125,-339.51220703125,-183.09451293945312,-1.1663818359375,-0.261474609375,-0.25537109375,-10.914634704589844,-124.2530517578125,-162.27134704589844,0.6350725889205933,0.0792647153139114,-0.7438433766365051,-0.1926055550575256,0.6427086591720581,0.4444526731967926,0.3308950960636139,0.5290518403053284,0.6344701051712036,0.4594368934631347,0.4675498008728027,0.4095882475376129
1900-01-01 13:48:48.164971,-0.51904296875,-1.189697265625,-0.44970703125,181.9207305908203,-113.88719940185548,-30.54878044128418,-0.31298828125,0.70263671875,0.5155029296875,-40.594512939453125,-345.2134094238281,-214.0548858642578,-1.13671875,-0.323974609375,-0.2279052734375,-28.018293380737305,-150.73170471191406,-148.3079376220703,0.6712445020675659,0.096376284956932,-0.7024767398834229,-0.2160298228263855,0.6552926898002625,0.4665289223194122,0.3158608376979828,0.5031642317771912,0.6547002792358398,0.4730499982833862,0.4432121515274048,0.3887854218482971
1900-01-01 13:48:48.202206,-0.4686279296875,-1.13916015625,-0.38330078125,181.0823211669922,-139.57318115234375,-15.838415145874023,-0.31298828125,0.70263671875,0.5155029296875,-52.33231735229492,-349.51220703125,-233.9329376220703,-1.064697265625,-0.306396484375,-0.1651611328125,-59.375,-197.256103515625,-130.9603729248047,0.7010175585746765,0.1101111993193626,-0.6660470366477966,-0.229850485920906,0.7114379405975342,0.5601363182067871,0.1994003504514694,0.3746235966682434,0.67464679479599,0.4854375123977661,0.4158717691898346,0.3691243827342987
1900-01-01 13:48:48.240103,-0.4072265625,-1.093994140625,-0.28564453125,180.06097412109375,-163.94818115234375,-6.920732021331787,-0.2147216796875,0.6380615234375,0.5526123046875,-71.6463394165039,-353.30792236328125,-246.9512176513672,-0.83935546875,-0.25244140625,0.0032958984375,-70.68597412109375,-215.8384246826172,-141.85975646972656,0.7168321013450623,0.11847635358572,-0.6445478200912476,-0.2380611300468444,0.7296047210693359,0.6054468750953674,0.0995874181389808,0.301982432603836,0.7287135720252991,0.5151039958000183,0.3227878510951996,0.3153608441352844
1900-01-01 13:48:48.241130,-0.390380859375,-1.0555419921875,-0.1761474609375,183.6280517578125,-185.5792694091797,-5.320122241973877,-0.017333984375,0.4281005859375,0.64306640625,-118.36890411376952,-359.55792236328125,-256.1585388183594,-0.83935546875,-0.25244140625,0.0032958984375,-76.34146881103516,-235.6707305908203,-162.07318115234375,0.733554482460022,0.1265965104103088,-0.6202808618545532,-0.2472302615642547,0.7353464961051941,0.6151503324508667,0.0609664022922515,0.2777385115623474,0.7435601353645325,0.5247206091880798,0.2878442406654358,0.2982151210308075
1900-01-01 13:48:48.252050,-0.3660888671875,-1.0196533203125,-0.053466796875,200.82318115234372,-202.9573211669922,-8.719511985778809,-0.017333984375,0.4281005859375,0.64306640625,-145.9298858642578,-361.6158752441406,-256.0213623046875,-0.83935546875,-0.25244140625,0.0032958984375,-76.34146881103516,-235.6707305908203,-162.07318115234375,0.7503067255020142,0.1333222836256027,-0.5945555567741394,-0.2564539611339569,0.7420290112495422,0.6203836798667908,0.0212198533117771,0.2531138956546783,0.757079005241394,0.5334880352020264,0.2503621280193329,0.2820296883583069
1900-01-01 13:48:48.273739,-0.302001953125,-1.027587890625,0.077392578125,230.68597412109372,-214.39024353027344,-15.47256088256836,0.0283203125,0.1739501953125,0.5771484375,-170.65548706054688,-362.01220703125,-254.26829528808597,-0.752685546875,-0.314208984375,0.119384765625,-76.34146881103516,-235.6707305908203,-162.07318115234375,0.7503067255020142,0.1333222836256027,-0.5945555567741394,-0.2564539611339569,0.7760831713676453,0.5957201719284058,-0.165266141295433,0.1244965940713882,0.782485842704773,0.543257474899292,0.1685611307621002,0.2533265650272369
1900-01-01 13:48:48.300245,-0.22998046875,-1.0537109375,0.193115234375,260.0,-223.2012176513672,-15.15243911743164,0.0283203125,0.1739501953125,0.5771484375,-183.2621917724609,-367.4237976074219,-239.16159057617188,-0.678955078125,-0.3818359375,0.2255859375,-73.32317352294922,-276.9054870605469,-202.6829376220703,0.7855197787284851,0.1424485296010971,-0.5367671251296997,-0.2730352282524109,0.778342068195343,0.5890716910362244,-0.1924415081739425,0.100719541311264,0.7954460382461548,0.542284369468689,0.1242398247122764,0.2403284460306167
1900-01-01 13:48:48.306123,-0.1409912109375,-1.0550537109375,0.28759765625,286.3109741210937,-227.36280822753903,-5.655488014221191,0.0587158203125,0.0577392578125,0.5595703125,-183.2621917724609,-367.4237976074219,-239.16159057617188,-0.628173828125,-0.4798583984375,0.3062744140625,-73.32317352294922,-276.9054870605469,-202.6829376220703,0.821169376373291,0.1458446383476257,-0.4736794531345367,-0.2829098105430603,0.7788635492324829,0.5837249159812927,-0.2157955914735794,0.0779050961136818,0.8080016374588013,0.5370386242866516,0.0807152464985847,0.2284904271364212
1900-01-01 13:48:48.337895,-0.0579833984375,-1.0531005859375,0.3538818359375,309.45123291015625,-227.5457305908203,12.682927131652832,0.0587158203125,0.0577392578125,0.5595703125,-193.2317047119141,-376.768310546875,-216.23475646972656,-0.5985107421875,-0.6212158203125,0.3590087890625,-57.21036529541016,-312.5457458496094,-214.2073211669922,0.8554028272628784,0.1456735283136367,-0.4063834249973297,-0.2862124741077423,0.7767589092254639,0.5765812397003174,-0.2507058382034302,0.036689668893814,0.8320597410202026,0.514876127243042,-0.006874531507492,0.2062324583530426
1900-01-01 13:48:48.354163,-0.0064697265625,-1.0223388671875,0.4093017578125,326.3719482421875,-225.9146423339844,39.588417053222656,0.12939453125,0.021240234375,0.6005859375,-193.2317047119141,-376.768310546875,-216.23475646972656,-0.5645751953125,-0.75634765625,0.4000244140625,-57.21036529541016,-312.5457458496094,-214.2073211669922,0.885410487651825,0.1409748643636703,-0.3373434543609619,-0.2870081961154938,0.7730908393859863,0.5730500221252441,-0.2719262838363647,0.0006226699915714,0.8417523503303528,0.5010383725166321,-0.0473143234848976,0.195383682847023
1900-01-01 13:48:48.385641,0.0244140625,-0.9786376953125,0.46923828125,332.5914611816406,-226.0823211669922,66.0213394165039,0.12939453125,0.021240234375,0.6005859375,-207.94207763671875,-387.7591552734375,-191.31097412109372,-0.5645751953125,-0.75634765625,0.4000244140625,-49.024391174316406,-327.45428466796875,-204.78659057617188,0.9126231074333192,0.1274213790893554,-0.2636651396751404,-0.2852429151535034,0.7712603211402893,0.5724264979362488,-0.2779546082019806,-0.0150540862232446,0.8497117757797241,0.4870186746120453,-0.0842340961098671,0.1835951954126358
1900-01-01 13:48:48.433900,0.084716796875,-0.9625244140625,0.54541015625,337.6219482421875,-226.7073211669922,91.1280517578125,0.2940673828125,-0.0059814453125,0.818603515625,-229.96951293945312,-394.1006164550781,-172.85061645507812,-0.4844970703125,-0.8919677734375,0.4710693359375,-37.3628044128418,-342.8658752441406,-190.56402587890625,0.939181923866272,0.0959912165999412,-0.1810431480407714,-0.2755837440490722,0.7689940929412842,0.5707849264144897,-0.2848639190196991,-0.0412939637899398,0.8618245124816895,0.4601707458496094,-0.1450959593057632,0.1563602834939956
1900-01-01 13:48:48.455720,0.165283203125,-0.909423828125,0.6688232421875,350.7317199707031,-223.5975646972656,118.70426940917967,0.35400390625,-0.052001953125,0.951416015625,-260.868896484375,-393.993896484375,-157.3780517578125,-0.4136962890625,-0.9554443359375,0.522216796875,-28.42987823486328,-358.9786682128906,-177.69818115234375,0.9704928398132324,0.0250761304050683,-0.0419132560491561,-0.2361312508583068,0.7701820731163025,0.5654848217964172,-0.2882233262062073,-0.0630382746458053,0.8736826777458191,0.4266013503074646,-0.2068825811147689,0.1090384423732757
1900-01-01 13:48:48.457026,0.2734375,-0.8231201171875,0.857421875,372.9878234863281,-209.6341552734375,144.1768341064453,0.396240234375,-0.1552734375,0.9940185546875,-362.2408752441406,-332.393310546875,-151.38719177246094,-0.4136962890625,-0.9554443359375,0.522216796875,-20.4878044128418,-375.0914611816406,-164.81707763671875,0.976529896259308,-0.0823041722178459,0.1323542296886444,-0.1486527919769287,0.7783646583557129,0.5487388372421265,-0.2916611731052398,-0.0892624258995056,0.8828569054603577,0.4012264907360077,-0.2365887612104416,0.0600560642778873
1900-01-01 13:48:48.457288,0.37890625,-0.7564697265625,0.9700927734375,401.2652587890625,-183.5975646972656,166.11280822753906,0.396240234375,-0.1552734375,0.9940185546875,-362.2408752441406,-332.393310546875,-151.38719177246094,-0.4136962890625,-0.9554443359375,0.522216796875,-20.4878044128418,-375.0914611816406,-164.81707763671875,0.9666555523872375,-0.1277821362018585,0.1986374408006668,-0.0989536195993423,0.7825164198875427,0.541255533695221,-0.292568564414978,-0.0954679101705551,0.8861913084983826,0.3930598795413971,-0.2411033809185028,0.0451457537710666
1900-01-01 13:48:48.458398,0.4415283203125,-0.72607421875,0.989013671875,433.3079223632813,-156.21951293945312,188.10975646972656,0.570556640625,-0.314697265625,0.731201171875,-404.9390258789063,-252.04269409179688,-181.3567047119141,-0.116455078125,-1.0599365234375,0.7906494140625,59.55792999267578,-418.6585388183594,-126.32622528076172,0.953183114528656,-0.1636127382516861,0.2491999566555023,-0.0507173873484134,0.7983534336090088,0.51451176404953,-0.2945903837680816,-0.1054798662662506,0.9022566676139832,0.3491571843624115,-0.2529672682285309,-0.0054478337988257
1900-01-01 13:48:48.459498,0.5137939453125,-0.7034912109375,0.964599609375,469.8628234863281,-129.26829528808594,216.37196350097656,0.797607421875,-0.4283447265625,0.6912841796875,-359.81707763671875,-201.64634704589844,-214.96951293945312,0.182861328125,-0.9771728515625,0.7559814453125,141.28048706054688,-456.9969482421875,-108.3536605834961,0.919471025466919,-0.2109846174716949,0.3284905552864074,0.0463942252099514,0.7983534336090088,0.51451176404953,-0.2945903837680816,-0.1054798662662506,0.9166661500930786,0.3055315911769867,-0.2570627629756927,-0.0170995350927114
1900-01-01 13:48:48.460001,0.598388671875,-0.6513671875,0.90625,494.2225646972656,-106.006103515625,247.98780822753903,0.8870849609375,-0.567138671875,0.681884765625,-317.1493835449219,-178.36891174316406,-223.15548706054688,0.295654296875,-0.8997802734375,0.7093505859375,181.14329528808597,-483.3841552734375,-103.81098175048828,0.913325011730194,-0.220062106847763,0.3375974893569946,0.0586333088576793,0.7983534336090088,0.51451176404953,-0.2945903837680816,-0.1054798662662506,0.9166661500930786,0.3055315911769867,-0.2570627629756927,-0.0170995350927114
1900-01-01 13:48:48.460808,0.679931640625,-0.5604248046875,0.835205078125,499.4969482421875,-92.69817352294922,281.9969482421875,0.952392578125,-0.7042236328125,0.6700439453125,-317.1493835449219,-178.36891174316406,-223.15548706054688,0.3812255859375,-0.9100341796875,0.6915283203125,229.81707763671875,-499.51220703125,-87.3780517578125,0.907372236251831,-0.2307676523923874,0.3445428311824798,0.0686450973153114,0.7983534336090088,0.51451176404953,-0.2945903837680816,-0.1054798662662506,0.9166661500930786,0.3055315911769867,-0.2570627629756927,-0.0170995350927114
1900-01-01 13:48:48.461437,0.7437744140625,-0.4293212890625,0.799560546875,490.82318115234375,-92.19512176513672,317.05792236328125,0.996337890625,-0.8177490234375,0.6854248046875,-264.2378234863281,-156.1737823486328,-225.48780822753903,0.56298828125,-0.9207763671875,0.7567138671875,275.1219482421875,-499.51220703125,-66.31097412109375,0.907372236251831,-0.2307676523923874,0.3445428311824798,0.0686450973153114,0.7983534336090088,0.51451176404953,-0.2945903837680816,-0.1054798662662506,0.9166661500930786,0.3055315911769867,-0.2570627629756927,-0.0170995350927114
1900-01-01 13:48:48.461588,0.7939453125,-0.3013916015625,0.7657470703125,479.8475646972656,-91.18902587890624,349.9085388183594,0.996337890625,-0.8177490234375,0.6854248046875,-264.2378234863281,-156.1737823486328,-225.48780822753903,0.56298828125,-0.9207763671875,0.7567138671875,275.1219482421875,-499.51220703125,-66.31097412109375,0.907372236251831,-0.2307676523923874,0.3445428311824798,0.0686450973153114,0.7983534336090088,0.51451176404953,-0.2945903837680816,-0.1054798662662506,0.9166661500930786,0.3055315911769867,-0.2570627629756927,-0.0170995350927114
1900-01-01 13:48:48.461678,0.8441162109375,-0.1734619140625,0.678955078125,476.8140258789063,-79.81707763671875,375.1219482421875,0.996337890625,-0.8177490234375,0.6854248046875,-264.2378234863281,-156.1737823486328,-225.48780822753903,0.56298828125,-0.9207763671875,0.7567138671875,275.1219482421875,-499.51220703125,-66.31097412109375,0.907372236251831,-0.2307676523923874,0.3445428311824798,0.0686450973153114,0.7983534336090088,0.51451176404953,-0.2945903837680816,-0.1054798662662506,0.9166661500930786,0.3055315911769867,-0.2570627629756927,-0.0170995350927114
1900-01-01 13:48:48.461810,0.8905029296875,-0.054931640625,0.556640625,477.5457458496094,-62.69817352294922,391.493896484375,0.996337890625,-0.8177490234375,0.6854248046875,-264.2378234863281,-156.1737823486328,-225.48780822753903,0.56298828125,-0.9207763671875,0.7567138671875,275.1219482421875,-499.51220703125,-66.31097412109375,0.907372236251831,-0.2307676523923874,0.3445428311824798,0.0686450973153114,0.7983534336090088,0.51451176404953,-0.2945903837680816,-0.1054798662662506,0.9166661500930786,0.3055315911769867,-0.2570627629756927,-0.0170995350927114
1900-01-01 13:48:48.462008,0.946044921875,0.0736083984375,0.435302734375,475.96038818359375,-40.28963470458984,404.6951293945313,0.996337890625,-0.8177490234375,0.6854248046875,-264.2378234863281,-156.1737823486328,-225.48780822753903,0.56298828125,-0.9207763671875,0.7567138671875,275.1219482421875,-499.51220703125,-66.31097412109375,0.907372236251831,-0.2307676523923874,0.3445428311824798,0.0686450973153114,0.7983534336090088,0.51451176404953,-0.2945903837680816,-0.1054798662662506,0.9166661500930786,0.3055315911769867,-0.2570627629756927,-0.0170995350927114
1900-01-01 13:48:48.462130,1.00341796875,0.2589111328125,0.42578125,463.7957458496094,-19.908536911010746,415.9299011230469,0.996337890625,-0.8177490234375,0.6854248046875,-264.2378234863281,-156.1737823486328,-225.48780822753903,0.56298828125,-0.9207763671875,0.7567138671875,275.1219482421875,-499.51220703125,-66.31097412109375,0.907372236251831,-0.2307676523923874,0.3445428311824798,0.0686450973153114,0.7983534336090088,0.51451176404953,-0.2945903837680816,-0.1054798662662506,0.9166661500930786,0.3055315911769867,-0.2570627629756927,-0.0170995350927114
1900-01-01 13:48:48.462215,1.0101318359375,0.4884033203125,0.49658203125,444.7256164550781,-0.5792682766914368,428.1402587890625,0.996337890625,-0.8177490234375,0.6854248046875,-264.2378234863281,-156.1737823486328,-225.48780822753903,0.56298828125,-0.9207763671875,0.7567138671875,275.1219482421875,-499.51220703125,-66.31097412109375,0.907372236251831,-0.2307676523923874,0.3445428311824798,0.0686450973153114,0.7983534336090088,0.51451176404953,-0.2945903837680816,-0.1054798662662506,0.9166661500930786,0.3055315911769867,-0.2570627629756927,-0.0170995350927114
1900-01-01 13:48:48.462681,1.0067138671875,0.712890625,0.5325927734375,420.1219482421875,19.6189022064209,431.5701293945313,0.996337890625,-0.8177490234375,0.6854248046875,-211.47866821289065,-133.81097412109375,-220.01524353027344,0.603271484375,-0.85009765625,0.7420654296875,310.5335388183594,-499.51220703125,-41.89024353027344,0.907372236251831,-0.2307676523923874,0.3445428311824798,0.0686450973153114,0.7983534336090088,0.51451176404953,-0.2945903837680816,-0.1054798662662506,0.9166661500930786,0.3055315911769867,-0.2570627629756927,-0.0170995350927114
1900-01-01 13:48:48.463034,0.970947265625,0.886474609375,0.5308837890625,382.3628234863281,37.560977935791016,422.1646423339844,1.0281982421875,-0.892822265625,0.716064453125,-211.47866821289065,-133.81097412109375,-220.01524353027344,0.622802734375,-0.7578125,0.7103271484375,340.0,-499.51220703125,-9.862805366516112,0.907372236251831,-0.2307676523923874,0.3445428311824798,0.0686450973153114,0.7983534336090088,0.51451176404953,-0.2945903837680816,-0.1054798662662506,0.9166661500930786,0.3055315911769867,-0.2570627629756927,-0.0170995350927114
1900-01-01 13:48:48.463428,0.9222412109375,1.0103759765625,0.4844970703125,336.0518493652344,48.14024353027344,400.6097717285156,1.0233154296875,-0.967041015625,0.7337646484375,-121.49390411376952,-88.07926940917969,-207.6829376220703,0.622802734375,-0.7578125,0.7103271484375,360.7317199707031,-499.51220703125,28.780488967895508,0.907372236251831,-0.2307676523923874,0.3445428311824798,0.0686450973153114,0.7983534336090088,0.51451176404953,-0.2945903837680816,-0.1054798662662506,0.9166661500930786,0.3055315911769867,-0.2570627629756927,-0.0170995350927114
1900-01-01 13:48:48.463911,0.9007568359375,1.1209716796875,0.4122314453125,287.5304870605469,55.685977935791016,380.19818115234375,1.0123291015625,-1.0340576171875,0.74755859375,-84.92378234863281,-62.774391174316406,-198.75,0.61669921875,-0.677978515625,0.6705322265625,362.01220703125,-499.51220703125,64.98475646972656,0.907372236251831,-0.2307676523923874,0.3445428311824798,0.0686450973153114,0.7983534336090088,0.51451176404953,-0.2945903837680816,-0.1054798662662506,0.9166661500930786,0.3055315911769867,-0.2570627629756927,-0.0170995350927114
1900-01-01 13:48:48.464085,0.874755859375,1.2445068359375,0.34228515625,234.0853729248047,53.94817352294922,363.8567199707031,1.0123291015625,-1.0340576171875,0.74755859375,-84.92378234863281,-62.774391174316406,-198.75,0.623046875,-0.67138671875,0.70166015625,342.7286682128906,-499.51220703125,90.12195587158205,0.907372236251831,-0.2307676523923874,0.3445428311824798,0.0686450973153114,0.7983534336090088,0.51451176404953,-0.2945903837680816,-0.1054798662662506,0.9166661500930786,0.3055315911769867,-0.2570627629756927,-0.0170995350927114
1900-01-01 13:48:48.464458,0.8519287109375,1.344970703125,0.344482421875,179.8018341064453,42.80487823486328,342.4847717285156,1.0123291015625,-1.0340576171875,0.74755859375,-84.92378234863281,-62.774391174316406,-198.75,0.7015380859375,-0.58544921875,0.74951171875,327.1036682128906,-499.51220703125,93.55183410644533,0.907372236251831,-0.2307676523923874,0.3445428311824798,0.0686450973153114,0.7983534336090088,0.51451176404953,-0.2945903837680816,-0.1054798662662506,0.9166661500930786,0.3055315911769867,-0.2570627629756927,-0.0170995350927114
